eventStartTime,eventEndTime,eventCond,imSize,imFile,responseEvent,fixRespStart,fixRespEnd,Events.thisRepN,Events.thisTrialN,Events.thisN,Events.thisIndex,Instructions.started,Instructions.stopped,participantReadyResponse.keys,participantReadyResponse.rt,participantReadyResponse.started,participantReadyResponse.stopped,startWaitforTrigger,triggerResponse.keys,triggerResponse.rt,triggerResponse.started,triggerResponse.stopped,globalTimer,actualStartTime,startTimingDiff,participantResponse.keys,participantResponse.started,participantResponse.stopped,image.started,image.stopped,fixationOutside.started,fixationOutside.stopped,fixationResponse.started,fixationResponse.stopped,fixationInside.started,fixationInside.stopped,participantResponse.rt,session,participant,date,expName,psychopyVersion,frameRate,
,,,,,,,,,,,,9.699239799999305,None,1,3.667252300000655,9.699239799999305,None,,,,,,,,,,,,,,,,,,,,,006,P021,2025_May_08_1218,ConditionRich,2021.2.3,59.97008692042236,
,,,,,,,,,,,,,,,,,,13.372326599999724,5,14.605665900000531,13.384883400000035,None,,,,,,,,,,,,,,,,006,P021,2025_May_08_1218,ConditionRich,2021.2.3,59.97008692042236,
0.0,4.0,0,0.0,Stimuli/Blank.png,0,0,0.0,0,0,0,0,,,,,,,,,,,,28.0019542,0.05403610000030312,0.05403610000030312,None,28.081174199999623,None,28.081174199999623,None,28.081174199999623,None,28.081174199999623,28.081174199999623,28.081174199999623,None,,006,P021,2025_May_08_1218,ConditionRich,2021.2.3,59.97008692042236,
4.0,4.75,32,0.75,Stimuli/P009/things_hawk_05s.jpg,0,0,0.0,0,1,1,1,,,,,,,,,,,,,4.023923800000375,0.023923800000375195,None,32.05155229999946,32.05155229999946,32.05155229999946,32.05155229999946,32.05155229999946,32.05155229999946,32.05155229999946,32.05155229999946,32.05155229999946,32.05155229999946,,006,P021,2025_May_08_1218,ConditionRich,2021.2.3,59.97008692042236,
4.75,5.0,41,0.0,Stimuli/Blank.png,0,0,0.0,0,2,2,2,,,,,,,,,,,,,4.7695147000004,0.0195147000003999,None,32.785660699999426,32.785660699999426,32.785660699999426,32.785660699999426,32.785660699999426,32.785660699999426,32.785660699999426,32.785660699999426,32.785660699999426,32.785660699999426,,006,P021,2025_May_08_1218,ConditionRich,2021.2.3,59.97008692042236,
5.0,5.75,32,0.75,Stimuli/P009/things_hawk_05s.jpg,0,0,0.0,0,3,3,3,,,,,,,,,,,,,5.002485400000296,0.0024854000002960674,None,33.01886099999956,33.01886099999956,33.01886099999956,33.01886099999956,33.01886099999956,33.01886099999956,33.01886099999956,33.01886099999956,33.01886099999956,33.01886099999956,,006,P021,2025_May_08_1218,ConditionRich,2021.2.3,59.97008692042236,
5.75,6.0,41,0.0,Stimuli/Blank.png,0,0,0.0,0,4,4,4,,,,,,,,,,,,,5.753462800000307,0.0034628000003067427,None,33.7695262999996,33.7695262999996,33.7695262999996,33.7695262999996,33.7695262999996,33.7695262999996,33.7695262999996,33.7695262999996,33.7695262999996,33.7695262999996,,006,P021,2025_May_08_1218,ConditionRich,2021.2.3,59.97008692042236,
6.0,6.75,32,0.75,Stimuli/P009/things_hawk_05s.jpg,0,0,0.0,0,5,5,5,,,,,,,,,,,,,6.006810599999881,0.006810599999880651,None,34.03644769999937,34.03644769999937,34.03644769999937,34.03644769999937,34.03644769999937,34.03644769999937,34.03644769999937,34.03644769999937,34.03644769999937,34.03644769999937,,006,P021,2025_May_08_1218,ConditionRich,2021.2.3,59.97008692042236,
6.75,7.0,41,0.0,Stimuli/Blank.png,0,0,0.0,0,6,6,6,,,,,,,,,,,,,6.770641900000555,0.020641900000555324,None,34.787088299999596,34.787088299999596,34.787088299999596,34.787088299999596,34.787088299999596,34.787088299999596,34.787088299999596,34.787088299999596,34.787088299999596,34.787088299999596,,006,P021,2025_May_08_1218,ConditionRich,2021.2.3,59.97008692042236,
7.0,7.75,32,0.75,Stimuli/P009/things_hawk_05s.jpg,0,0,0.0,0,7,7,7,,,,,,,,,,,,,7.003980899999988,0.0039808999999877415,None,35.02063459999954,35.02063459999954,35.02063459999954,35.02063459999954,35.02063459999954,35.02063459999954,35.02063459999954,35.02063459999954,35.02063459999954,35.02063459999954,,006,P021,2025_May_08_1218,ConditionRich,2021.2.3,59.97008692042236,
7.75,8.0,41,0.0,Stimuli/Blank.png,0,0,0.0,0,8,8,8,,,,,,,,,,,,,7.75532370000019,0.0053237000001900014,None,35.77128979999998,35.77128979999998,35.77128979999998,35.77128979999998,35.77128979999998,35.77128979999998,35.77128979999998,35.77128979999998,35.77128979999998,35.77128979999998,,006,P021,2025_May_08_1218,ConditionRich,2021.2.3,59.97008692042236,
8.0,8.75,29,0.75,Stimuli/P009/things_fingerprint_05s.jpg,0,0,0.0,0,9,9,9,,,,,,,,,,,,,8.006079900000259,0.006079900000258931,None,36.02151150000009,36.02151150000009,36.02151150000009,36.02151150000009,36.02151150000009,36.02151150000009,36.02151150000009,36.02151150000009,36.02151150000009,36.02151150000009,,006,P021,2025_May_08_1218,ConditionRich,2021.2.3,59.97008692042236,
8.75,9.0,41,0.0,Stimuli/Blank.png,0,0,0.0,0,10,10,10,,,,,,,,,,,,,8.755720699999983,0.005720699999983481,None,36.772199199999704,36.772199199999704,36.772199199999704,36.772199199999704,36.772199199999704,36.772199199999704,36.772199199999704,36.772199199999704,36.772199199999704,36.772199199999704,,006,P021,2025_May_08_1218,ConditionRich,2021.2.3,59.97008692042236,
9.0,9.75,29,0.75,Stimuli/P009/things_fingerprint_05s.jpg,0,0,0.0,0,11,11,11,,,,,,,,,,,,,9.006734600000527,0.00673460000052728,None,37.03925309999977,37.03925309999977,37.03925309999977,37.03925309999977,37.03925309999977,37.03925309999977,37.03925309999977,37.03925309999977,37.03925309999977,37.03925309999977,,006,P021,2025_May_08_1218,ConditionRich,2021.2.3,59.97008692042236,
9.75,10.0,41,0.0,Stimuli/Blank.png,0,0,0.0,0,12,12,12,,,,,,,,,,,,,9.774030499999753,0.024030499999753374,None,37.78975249999985,37.78975249999985,37.78975249999985,37.78975249999985,37.78975249999985,37.78975249999985,37.78975249999985,37.78975249999985,37.78975249999985,37.78975249999985,,006,P021,2025_May_08_1218,ConditionRich,2021.2.3,59.97008692042236,
10.0,10.75,29,0.75,Stimuli/P009/things_fingerprint_05s.jpg,0,0,0.0,0,13,13,13,,,,,,,,,,,,,10.007263800000146,0.007263800000146148,None,38.02328099999977,38.02328099999977,38.02328099999977,38.02328099999977,38.02328099999977,38.02328099999977,38.02328099999977,38.02328099999977,38.02328099999977,38.02328099999977,,006,P021,2025_May_08_1218,ConditionRich,2021.2.3,59.97008692042236,
10.75,11.0,41,0.0,Stimuli/Blank.png,0,0,0.0,0,14,14,14,,,,,,,,,,,,,10.7598895000001,0.00988950000009936,None,38.79063249999945,38.79063249999945,38.79063249999945,38.79063249999945,38.79063249999945,38.79063249999945,38.79063249999945,38.79063249999945,38.79063249999945,38.79063249999945,,006,P021,2025_May_08_1218,ConditionRich,2021.2.3,59.97008692042236,
11.0,11.75,29,0.75,Stimuli/P009/things_fingerprint_05s.jpg,0,0,0.0,0,15,15,15,,,,,,,,,,,,,11.025331599999845,0.02533159999984491,None,39.05754549999983,39.05754549999983,39.05754549999983,39.05754549999983,39.05754549999983,39.05754549999983,39.05754549999983,39.05754549999983,39.05754549999983,39.05754549999983,,006,P021,2025_May_08_1218,ConditionRich,2021.2.3,59.97008692042236,
11.75,12.0,41,0.0,Stimuli/Blank.png,0,0,0.0,0,16,16,16,,,,,,,,,,,,,11.774946999999884,0.0249469999998837,None,39.79147449999982,39.79147449999982,39.79147449999982,39.79147449999982,39.79147449999982,39.79147449999982,39.79147449999982,39.79147449999982,39.79147449999982,39.79147449999982,,006,P021,2025_May_08_1218,ConditionRich,2021.2.3,59.97008692042236,
12.0,12.75,19,0.75,Stimuli/P009/sun_bwvfnogmotsvhofs.jpg,0,0,0.0,0,17,17,17,,,,,,,,,,,,,12.009213600000294,0.009213600000293809,None,40.02504309999949,40.02504309999949,40.02504309999949,40.02504309999949,40.02504309999949,40.02504309999949,40.02504309999949,40.02504309999949,40.02504309999949,40.02504309999949,,006,P021,2025_May_08_1218,ConditionRich,2021.2.3,59.97008692042236,
12.75,13.0,41,0.0,Stimuli/Blank.png,0,0,0.0,0,18,18,18,,,,,,,,,,,,,12.760284799999681,0.010284799999681127,None,40.77571910000006,40.77571910000006,40.77571910000006,40.77571910000006,40.77571910000006,40.77571910000006,40.77571910000006,40.77571910000006,40.77571910000006,40.77571910000006,,006,P021,2025_May_08_1218,ConditionRich,2021.2.3,59.97008692042236,
13.0,13.75,19,0.75,Stimuli/P009/sun_bwvfnogmotsvhofs.jpg,0,0,0.0,0,19,19,19,,,,,,,,,,,,,13.010027700000137,0.010027700000136974,None,41.0426367,41.0426367,41.0426367,41.0426367,41.0426367,41.0426367,41.0426367,41.0426367,41.0426367,41.0426367,,006,P021,2025_May_08_1218,ConditionRich,2021.2.3,59.97008692042236,
13.75,14.0,41,0.0,Stimuli/Blank.png,0,0,0.0,0,20,20,20,,,,,,,,,,,,,13.776882500000283,0.02688250000028347,None,41.79327149999972,41.79327149999972,41.79327149999972,41.79327149999972,41.79327149999972,41.79327149999972,41.79327149999972,41.79327149999972,41.79327149999972,41.79327149999972,,006,P021,2025_May_08_1218,ConditionRich,2021.2.3,59.97008692042236,
14.0,14.75,19,0.75,Stimuli/P009/sun_bwvfnogmotsvhofs.jpg,0,0,0.0,0,21,21,21,,,,,,,,,,,,,14.010309700000107,0.010309700000107114,None,42.02682189999996,42.02682189999996,42.02682189999996,42.02682189999996,42.02682189999996,42.02682189999996,42.02682189999996,42.02682189999996,42.02682189999996,42.02682189999996,,006,P021,2025_May_08_1218,ConditionRich,2021.2.3,59.97008692042236,
14.75,15.0,41,0.0,Stimuli/Blank.png,0,0,0.0,0,22,22,22,,,,,,,,,,,,,14.761521800000082,0.011521800000082294,None,42.777488799999446,42.777488799999446,42.777488799999446,42.777488799999446,42.777488799999446,42.777488799999446,42.777488799999446,42.777488799999446,42.777488799999446,42.777488799999446,,006,P021,2025_May_08_1218,ConditionRich,2021.2.3,59.97008692042236,
15.0,15.75,19,0.75,Stimuli/P009/sun_bwvfnogmotsvhofs.jpg,0,0,0.0,0,23,23,23,,,,,,,,,,,,,15.011287600000287,0.011287600000287057,None,43.027695499999936,43.027695499999936,43.027695499999936,43.027695499999936,43.027695499999936,43.027695499999936,43.027695499999936,43.027695499999936,43.027695499999936,43.027695499999936,,006,P021,2025_May_08_1218,ConditionRich,2021.2.3,59.97008692042236,
15.75,16.0,41,0.0,Stimuli/Blank.png,0,0,0.0,0,24,24,24,,,,,,,,,,,,,15.761780300000282,0.011780300000282296,None,43.77836049999951,43.77836049999951,43.77836049999951,43.77836049999951,43.77836049999951,43.77836049999951,43.77836049999951,43.77836049999951,43.77836049999951,43.77836049999951,,006,P021,2025_May_08_1218,ConditionRich,2021.2.3,59.97008692042236,
16.0,16.75,13,0.75,Stimuli/P009/sun_bjimvgwadfodioes.jpg,0,0,0.0,0,25,25,25,,,,,,,,,,,,,16.012134600000536,0.012134600000536011,None,44.045278399999916,44.045278399999916,44.045278399999916,44.045278399999916,44.045278399999916,44.045278399999916,44.045278399999916,44.045278399999916,44.045278399999916,44.045278399999916,,006,P021,2025_May_08_1218,ConditionRich,2021.2.3,59.97008692042236,
16.75,17.0,41,0.0,Stimuli/Blank.png,0,0,0.0,0,26,26,26,,,,,,,,,,,,,16.780023999999685,0.030023999999684747,None,44.79593599999953,44.79593599999953,44.79593599999953,44.79593599999953,44.79593599999953,44.79593599999953,44.79593599999953,44.79593599999953,44.79593599999953,44.79593599999953,,006,P021,2025_May_08_1218,ConditionRich,2021.2.3,59.97008692042236,
17.0,17.75,13,0.75,Stimuli/P009/sun_bjimvgwadfodioes.jpg,1,0,0.75,0,27,27,27,,,,,,,,,,,,,17.01584230000026,0.015842300000258547,1,45.046161700000084,45.046161700000084,45.046161700000084,45.046161700000084,45.046161700000084,45.046161700000084,45.046161700000084,None,45.046161700000084,45.046161700000084,0.43416290000004665,006,P021,2025_May_08_1218,ConditionRich,2021.2.3,59.97008692042236,
17.75,18.0,41,0.0,Stimuli/Blank.png,0,0,0.0,0,28,28,28,,,,,,,,,,,,,17.76540389999991,0.015403899999910209,None,45.78013639999972,45.78013639999972,45.78013639999972,45.78013639999972,45.78013639999972,45.78013639999972,45.78013639999972,45.78013639999972,45.78013639999972,45.78013639999972,,006,P021,2025_May_08_1218,ConditionRich,2021.2.3,59.97008692042236,
18.0,18.75,13,0.75,Stimuli/P009/sun_bjimvgwadfodioes.jpg,0,0,0.0,0,29,29,29,,,,,,,,,,,,,18.01377390000016,0.01377390000016021,None,46.030353000000105,46.030353000000105,46.030353000000105,46.030353000000105,46.030353000000105,46.030353000000105,46.030353000000105,46.030353000000105,46.030353000000105,46.030353000000105,,006,P021,2025_May_08_1218,ConditionRich,2021.2.3,59.97008692042236,
18.75,19.0,41,0.0,Stimuli/Blank.png,0,0,0.0,0,30,30,30,,,,,,,,,,,,,18.765689800000473,0.015689800000473042,None,46.7977235999997,46.7977235999997,46.7977235999997,46.7977235999997,46.7977235999997,46.7977235999997,46.7977235999997,46.7977235999997,46.7977235999997,46.7977235999997,,006,P021,2025_May_08_1218,ConditionRich,2021.2.3,59.97008692042236,
19.0,19.75,13,0.75,Stimuli/P009/sun_bjimvgwadfodioes.jpg,0,0,0.0,0,31,31,31,,,,,,,,,,,,,19.016229900000326,0.01622990000032587,None,47.04791659999955,47.04791659999955,47.04791659999955,47.04791659999955,47.04791659999955,47.04791659999955,47.04791659999955,47.04791659999955,47.04791659999955,47.04791659999955,,006,P021,2025_May_08_1218,ConditionRich,2021.2.3,59.97008692042236,
19.75,20.0,41,0.0,Stimuli/Blank.png,0,0,0.0,0,32,32,32,,,,,,,,,,,,,19.76546529999996,0.015465299999959825,None,47.7819013999997,47.7819013999997,47.7819013999997,47.7819013999997,47.7819013999997,47.7819013999997,47.7819013999997,47.7819013999997,47.7819013999997,47.7819013999997,,006,P021,2025_May_08_1218,ConditionRich,2021.2.3,59.97008692042236,
20.0,20.75,26,0.75,Stimuli/P009/things_cookie_sheet_05s.jpg,1,0,0.75,0,33,33,33,,,,,,,,,,,,,19.9995514000002,-0.00044859999979962595,1,48.032141699999556,48.032141699999556,48.032141699999556,48.032141699999556,48.032141699999556,48.032141699999556,48.032141699999556,48.74945560000015,48.032141699999556,48.032141699999556,0.42225580000012997,006,P021,2025_May_08_1218,ConditionRich,2021.2.3,59.97008692042236,
20.75,21.0,41,0.0,Stimuli/Blank.png,0,0,0.0,0,34,34,34,,,,,,,,,,,,,20.767136100000243,0.01713610000024346,None,48.78283929999998,48.78283929999998,48.78283929999998,48.78283929999998,48.78283929999998,48.78283929999998,48.78283929999998,48.78283929999998,48.78283929999998,48.78283929999998,,006,P021,2025_May_08_1218,ConditionRich,2021.2.3,59.97008692042236,
21.0,21.75,26,0.75,Stimuli/P009/things_cookie_sheet_05s.jpg,0,0,0.0,0,35,35,35,,,,,,,,,,,,,20.999963299999763,-3.670000023703324e-05,None,49.01632470000004,49.01632470000004,49.01632470000004,49.01632470000004,49.01632470000004,49.01632470000004,49.01632470000004,49.01632470000004,49.01632470000004,49.01632470000004,,006,P021,2025_May_08_1218,ConditionRich,2021.2.3,59.97008692042236,
21.75,22.0,41,0.0,Stimuli/Blank.png,0,0,0.0,0,36,36,36,,,,,,,,,,,,,21.750614999999925,0.0006149999999252032,None,49.766994099999465,49.766994099999465,49.766994099999465,49.766994099999465,49.766994099999465,49.766994099999465,49.766994099999465,49.766994099999465,49.766994099999465,49.766994099999465,,006,P021,2025_May_08_1218,ConditionRich,2021.2.3,59.97008692042236,
22.0,22.75,26,0.75,Stimuli/P009/things_cookie_sheet_05s.jpg,0,0,0.0,0,37,37,37,,,,,,,,,,,,,22.000608000000284,0.000608000000283937,None,50.017205099999956,50.017205099999956,50.017205099999956,50.017205099999956,50.017205099999956,50.017205099999956,50.017205099999956,50.017205099999956,50.017205099999956,50.017205099999956,,006,P021,2025_May_08_1218,ConditionRich,2021.2.3,59.97008692042236,
22.75,23.0,41,0.0,Stimuli/Blank.png,0,0,0.0,0,38,38,38,,,,,,,,,,,,,22.751825800000006,0.0018258000000059837,None,50.76789279999957,50.76789279999957,50.76789279999957,50.76789279999957,50.76789279999957,50.76789279999957,50.76789279999957,50.76789279999957,50.76789279999957,50.76789279999957,,006,P021,2025_May_08_1218,ConditionRich,2021.2.3,59.97008692042236,
23.0,23.75,26,0.75,Stimuli/P009/things_cookie_sheet_05s.jpg,0,0,0.0,0,39,39,39,,,,,,,,,,,,,23.00177530000019,0.0017753000001903274,None,51.0347899999997,51.0347899999997,51.0347899999997,51.0347899999997,51.0347899999997,51.0347899999997,51.0347899999997,51.0347899999997,51.0347899999997,51.0347899999997,,006,P021,2025_May_08_1218,ConditionRich,2021.2.3,59.97008692042236,
23.75,24.0,41,0.0,Stimuli/Blank.png,0,0,0.0,0,40,40,40,,,,,,,,,,,,,23.769546999999875,0.01954699999987497,None,51.785445499999696,51.785445499999696,51.785445499999696,51.785445499999696,51.785445499999696,51.785445499999696,51.785445499999696,51.785445499999696,51.785445499999696,51.785445499999696,,006,P021,2025_May_08_1218,ConditionRich,2021.2.3,59.97008692042236,
24.0,24.75,24,0.75,Stimuli/P009/things_cigar_05n.jpg,0,0,0.0,0,41,41,41,,,,,,,,,,,,,24.003704499999913,0.003704499999912514,None,52.035665999999765,52.035665999999765,52.035665999999765,52.035665999999765,52.035665999999765,52.035665999999765,52.035665999999765,52.035665999999765,52.035665999999765,52.035665999999765,,006,P021,2025_May_08_1218,ConditionRich,2021.2.3,59.97008692042236,
24.75,25.0,41,0.0,Stimuli/Blank.png,0,0,0.0,0,42,42,42,,,,,,,,,,,,,24.770615700000235,0.020615700000234938,None,52.78632969999944,52.78632969999944,52.78632969999944,52.78632969999944,52.78632969999944,52.78632969999944,52.78632969999944,52.78632969999944,52.78632969999944,52.78632969999944,,006,P021,2025_May_08_1218,ConditionRich,2021.2.3,59.97008692042236,
25.0,25.75,24,0.75,Stimuli/P009/things_cigar_05n.jpg,0,0,0.0,0,43,43,43,,,,,,,,,,,,,25.006756800000403,0.006756800000403018,None,53.03654149999966,53.03654149999966,53.03654149999966,53.03654149999966,53.03654149999966,53.03654149999966,53.03654149999966,53.03654149999966,53.03654149999966,53.03654149999966,,006,P021,2025_May_08_1218,ConditionRich,2021.2.3,59.97008692042236,
25.75,26.0,41,0.0,Stimuli/Blank.png,0,0,0.0,0,44,44,44,,,,,,,,,,,,,25.770604100000128,0.0206041000001278,None,53.78720749999957,53.78720749999957,53.78720749999957,53.78720749999957,53.78720749999957,53.78720749999957,53.78720749999957,53.78720749999957,53.78720749999957,53.78720749999957,,006,P021,2025_May_08_1218,ConditionRich,2021.2.3,59.97008692042236,
26.0,26.75,24,0.75,Stimuli/P009/things_cigar_05n.jpg,0,0,0.0,0,45,45,45,,,,,,,,,,,,,26.004617999999937,0.004617999999936728,None,54.02075229999991,54.02075229999991,54.02075229999991,54.02075229999991,54.02075229999991,54.02075229999991,54.02075229999991,54.02075229999991,54.02075229999991,54.02075229999991,,006,P021,2025_May_08_1218,ConditionRich,2021.2.3,59.97008692042236,
26.75,27.0,41,0.0,Stimuli/Blank.png,0,0,0.0,0,46,46,46,,,,,,,,,,,,,26.755544399999962,0.005544399999962479,None,54.7714275999997,54.7714275999997,54.7714275999997,54.7714275999997,54.7714275999997,54.7714275999997,54.7714275999997,54.7714275999997,54.7714275999997,54.7714275999997,,006,P021,2025_May_08_1218,ConditionRich,2021.2.3,59.97008692042236,
27.0,27.75,24,0.75,Stimuli/P009/things_cigar_05n.jpg,0,0,0.0,0,47,47,47,,,,,,,,,,,,,27.005437900000288,0.005437900000288209,None,55.021632599999975,55.021632599999975,55.021632599999975,55.021632599999975,55.021632599999975,55.021632599999975,55.021632599999975,55.021632599999975,55.021632599999975,55.021632599999975,,006,P021,2025_May_08_1218,ConditionRich,2021.2.3,59.97008692042236,
27.75,28.0,41,0.0,Stimuli/Blank.png,0,0,0.0,0,48,48,48,,,,,,,,,,,,,27.755750100000114,0.005750100000113889,None,55.772288999999546,55.772288999999546,55.772288999999546,55.772288999999546,55.772288999999546,55.772288999999546,55.772288999999546,55.772288999999546,55.772288999999546,55.772288999999546,,006,P021,2025_May_08_1218,ConditionRich,2021.2.3,59.97008692042236,
28.0,28.75,21,0.75,Stimuli/P009/things_boy_05s.jpg,0,0,0.0,0,49,49,49,,,,,,,,,,,,,28.00594430000001,0.0059443000000101165,None,56.0225077999994,56.0225077999994,56.0225077999994,56.0225077999994,56.0225077999994,56.0225077999994,56.0225077999994,56.0225077999994,56.0225077999994,56.0225077999994,,006,P021,2025_May_08_1218,ConditionRich,2021.2.3,59.97008692042236,
28.75,29.0,41,0.0,Stimuli/Blank.png,0,0,0.0,0,50,50,50,,,,,,,,,,,,,28.756640000000516,0.006640000000516011,None,56.773180799999864,56.773180799999864,56.773180799999864,56.773180799999864,56.773180799999864,56.773180799999864,56.773180799999864,56.773180799999864,56.773180799999864,56.773180799999864,,006,P021,2025_May_08_1218,ConditionRich,2021.2.3,59.97008692042236,
29.0,29.75,21,0.75,Stimuli/P009/things_boy_05s.jpg,0,0,0.0,0,51,51,51,,,,,,,,,,,,,29.00687259999995,0.00687259999995149,None,57.04009489999953,57.04009489999953,57.04009489999953,57.04009489999953,57.04009489999953,57.04009489999953,57.04009489999953,57.04009489999953,57.04009489999953,57.04009489999953,,006,P021,2025_May_08_1218,ConditionRich,2021.2.3,59.97008692042236,
29.75,30.0,41,0.0,Stimuli/Blank.png,0,0,0.0,0,52,52,52,,,,,,,,,,,,,29.774956100000054,0.024956100000053993,None,57.7907467999994,57.7907467999994,57.7907467999994,57.7907467999994,57.7907467999994,57.7907467999994,57.7907467999994,57.7907467999994,57.7907467999994,57.7907467999994,,006,P021,2025_May_08_1218,ConditionRich,2021.2.3,59.97008692042236,
30.0,30.75,21,0.75,Stimuli/P009/things_boy_05s.jpg,0,0,0.0,0,53,53,53,,,,,,,,,,,,,30.00775210000029,0.0077521000002889195,None,58.040997799999786,58.040997799999786,58.040997799999786,58.040997799999786,58.040997799999786,58.040997799999786,58.040997799999786,58.040997799999786,58.040997799999786,58.040997799999786,,006,P021,2025_May_08_1218,ConditionRich,2021.2.3,59.97008692042236,
30.75,31.0,41,0.0,Stimuli/Blank.png,0,0,0.0,0,54,54,54,,,,,,,,,,,,,30.775571299999683,0.025571299999683106,None,58.791625199999544,58.791625199999544,58.791625199999544,58.791625199999544,58.791625199999544,58.791625199999544,58.791625199999544,58.791625199999544,58.791625199999544,58.791625199999544,,006,P021,2025_May_08_1218,ConditionRich,2021.2.3,59.97008692042236,
31.0,31.75,21,0.75,Stimuli/P009/things_boy_05s.jpg,0,0,0.0,0,55,55,55,,,,,,,,,,,,,31.00912479999988,0.009124799999881361,None,59.025167099999635,59.025167099999635,59.025167099999635,59.025167099999635,59.025167099999635,59.025167099999635,59.025167099999635,59.025167099999635,59.025167099999635,59.025167099999635,,006,P021,2025_May_08_1218,ConditionRich,2021.2.3,59.97008692042236,
31.75,32.0,41,0.0,Stimuli/Blank.png,0,0,0.0,0,56,56,56,,,,,,,,,,,,,31.760491699999875,0.010491699999874982,None,59.77583809999942,59.77583809999942,59.77583809999942,59.77583809999942,59.77583809999942,59.77583809999942,59.77583809999942,59.77583809999942,59.77583809999942,59.77583809999942,,006,P021,2025_May_08_1218,ConditionRich,2021.2.3,59.97008692042236,
32.0,32.75,16,0.75,Stimuli/P009/sun_bqpyqljaflidcauh.jpg,1,0,0.75,0,57,57,57,,,,,,,,,,,,,32.010878400000365,0.010878400000365218,None,60.04273269999976,60.04273269999976,60.04273269999976,60.04273269999976,60.04273269999976,60.04273269999976,60.04273269999976,60.760032899999715,60.04273269999976,60.04273269999976,,006,P021,2025_May_08_1218,ConditionRich,2021.2.3,59.97008692042236,
32.75,33.0,41,0.0,Stimuli/Blank.png,0,0,0.0,0,58,58,58,,,,,,,,,,,,,32.77968849999979,0.02968849999979284,1,60.81008079999992,60.81008079999992,60.81008079999992,60.81008079999992,60.81008079999992,60.81008079999992,60.81008079999992,60.81008079999992,60.81008079999992,60.81008079999992,0.049255900000389374,006,P021,2025_May_08_1218,ConditionRich,2021.2.3,59.97008692042236,
33.0,33.75,16,0.75,Stimuli/P009/sun_bqpyqljaflidcauh.jpg,0,0,0.0,0,59,59,59,,,,,,,,,,,,,33.027858899999956,0.02785889999995561,None,61.06030849999934,61.06030849999934,61.06030849999934,61.06030849999934,61.06030849999934,61.06030849999934,61.06030849999934,61.06030849999934,61.06030849999934,61.06030849999934,,006,P021,2025_May_08_1218,ConditionRich,2021.2.3,59.97008692042236,
33.75,34.0,41,0.0,Stimuli/Blank.png,0,0,0.0,0,60,60,60,,,,,,,,,,,,,33.77829610000026,0.028296100000261504,None,61.79432139999972,61.79432139999972,61.79432139999972,61.79432139999972,61.79432139999972,61.79432139999972,61.79432139999972,61.79432139999972,61.79432139999972,61.79432139999972,,006,P021,2025_May_08_1218,ConditionRich,2021.2.3,59.97008692042236,
34.0,34.75,16,0.75,Stimuli/P009/sun_bqpyqljaflidcauh.jpg,0,0,0.0,0,61,61,61,,,,,,,,,,,,,34.01145650000035,0.011456500000349479,None,62.02787139999964,62.02787139999964,62.02787139999964,62.02787139999964,62.02787139999964,62.02787139999964,62.02787139999964,62.02787139999964,62.02787139999964,62.02787139999964,,006,P021,2025_May_08_1218,ConditionRich,2021.2.3,59.97008692042236,
34.75,35.0,41,0.0,Stimuli/Blank.png,0,0,0.0,0,62,62,62,,,,,,,,,,,,,34.763210199999776,0.013210199999775796,None,62.77849289999995,62.77849289999995,62.77849289999995,62.77849289999995,62.77849289999995,62.77849289999995,62.77849289999995,62.77849289999995,62.77849289999995,62.77849289999995,,006,P021,2025_May_08_1218,ConditionRich,2021.2.3,59.97008692042236,
35.0,35.75,16,0.75,Stimuli/P009/sun_bqpyqljaflidcauh.jpg,0,0,0.0,0,63,63,63,,,,,,,,,,,,,35.01501999999982,0.015019999999822176,None,63.045389500000056,63.045389500000056,63.045389500000056,63.045389500000056,63.045389500000056,63.045389500000056,63.045389500000056,63.045389500000056,63.045389500000056,63.045389500000056,,006,P021,2025_May_08_1218,ConditionRich,2021.2.3,59.97008692042236,
35.75,36.0,41,0.0,Stimuli/Blank.png,0,0,0.0,0,64,64,64,,,,,,,,,,,,,35.763625700000375,0.013625700000375218,None,63.77935889999935,63.77935889999935,63.77935889999935,63.77935889999935,63.77935889999935,63.77935889999935,63.77935889999935,63.77935889999935,63.77935889999935,63.77935889999935,,006,P021,2025_May_08_1218,ConditionRich,2021.2.3,59.97008692042236,
36.0,36.75,12,0.75,Stimuli/P009/sun_birmwgkdtrlevcaf.jpg,0,0,0.0,0,65,65,65,,,,,,,,,,,,,36.01343960000031,0.013439600000310747,None,64.0295901999998,64.0295901999998,64.0295901999998,64.0295901999998,64.0295901999998,64.0295901999998,64.0295901999998,64.0295901999998,64.0295901999998,64.0295901999998,,006,P021,2025_May_08_1218,ConditionRich,2021.2.3,59.97008692042236,
36.75,37.0,41,0.0,Stimuli/Blank.png,0,0,0.0,0,66,66,66,,,,,,,,,,,,,36.76529800000026,0.015298000000257161,None,64.78025709999929,64.78025709999929,64.78025709999929,64.78025709999929,64.78025709999929,64.78025709999929,64.78025709999929,64.78025709999929,64.78025709999929,64.78025709999929,,006,P021,2025_May_08_1218,ConditionRich,2021.2.3,59.97008692042236,
37.0,37.75,12,0.75,Stimuli/P009/sun_birmwgkdtrlevcaf.jpg,0,0,0.0,0,67,67,67,,,,,,,,,,,,,37.01449440000033,0.014494400000330643,None,65.04715249999936,65.04715249999936,65.04715249999936,65.04715249999936,65.04715249999936,65.04715249999936,65.04715249999936,65.04715249999936,65.04715249999936,65.04715249999936,,006,P021,2025_May_08_1218,ConditionRich,2021.2.3,59.97008692042236,
37.75,38.0,41,0.0,Stimuli/Blank.png,0,0,0.0,0,68,68,68,,,,,,,,,,,,,37.78137479999987,0.03137479999986681,None,65.79781419999927,65.79781419999927,65.79781419999927,65.79781419999927,65.79781419999927,65.79781419999927,65.79781419999927,65.79781419999927,65.79781419999927,65.79781419999927,,006,P021,2025_May_08_1218,ConditionRich,2021.2.3,59.97008692042236,
38.0,38.75,12,0.75,Stimuli/P009/sun_birmwgkdtrlevcaf.jpg,0,0,0.0,0,69,69,69,,,,,,,,,,,,,38.01549460000024,0.015494600000238279,None,66.03135289999955,66.03135289999955,66.03135289999955,66.03135289999955,66.03135289999955,66.03135289999955,66.03135289999955,66.03135289999955,66.03135289999955,66.03135289999955,,006,P021,2025_May_08_1218,ConditionRich,2021.2.3,59.97008692042236,
38.75,39.0,41,0.0,Stimuli/Blank.png,0,0,0.0,0,70,70,70,,,,,,,,,,,,,38.750851599999805,0.0008515999998053303,None,66.76535949999925,66.76535949999925,66.76535949999925,66.76535949999925,66.76535949999925,66.76535949999925,66.76535949999925,66.76535949999925,66.76535949999925,66.76535949999925,,006,P021,2025_May_08_1218,ConditionRich,2021.2.3,59.97008692042236,
39.0,39.75,12,0.75,Stimuli/P009/sun_birmwgkdtrlevcaf.jpg,0,0,0.0,0,71,71,71,,,,,,,,,,,,,39.000099099999716,9.90999997156905e-05,None,67.03227119999974,67.03227119999974,67.03227119999974,67.03227119999974,67.03227119999974,67.03227119999974,67.03227119999974,67.03227119999974,67.03227119999974,67.03227119999974,,006,P021,2025_May_08_1218,ConditionRich,2021.2.3,59.97008692042236,
39.75,40.0,41,0.0,Stimuli/Blank.png,0,0,0.0,0,72,72,72,,,,,,,,,,,,,39.767005400000016,0.01700540000001638,None,67.78290489999927,67.78290489999927,67.78290489999927,67.78290489999927,67.78290489999927,67.78290489999927,67.78290489999927,67.78290489999927,67.78290489999927,67.78290489999927,,006,P021,2025_May_08_1218,ConditionRich,2021.2.3,59.97008692042236,
40.0,40.75,31,0.75,Stimuli/P009/things_girl_05s.jpg,0,0,0.0,0,73,73,73,,,,,,,,,,,,,40.00117760000012,0.0011776000001191278,None,68.03312459999961,68.03312459999961,68.03312459999961,68.03312459999961,68.03312459999961,68.03312459999961,68.03312459999961,68.03312459999961,68.03312459999961,68.03312459999961,,006,P021,2025_May_08_1218,ConditionRich,2021.2.3,59.97008692042236,
40.75,41.0,41,0.0,Stimuli/Blank.png,0,0,0.0,0,74,74,74,,,,,,,,,,,,,40.77012509999986,0.02012509999985923,None,68.80048219999935,68.80048219999935,68.80048219999935,68.80048219999935,68.80048219999935,68.80048219999935,68.80048219999935,68.80048219999935,68.80048219999935,68.80048219999935,,006,P021,2025_May_08_1218,ConditionRich,2021.2.3,59.97008692042236,
41.0,41.75,31,0.75,Stimuli/P009/things_girl_05s.jpg,0,0,0.0,0,75,75,75,,,,,,,,,,,,,41.020107800000005,0.020107800000005227,None,69.05070269999942,69.05070269999942,69.05070269999942,69.05070269999942,69.05070269999942,69.05070269999942,69.05070269999942,69.05070269999942,69.05070269999942,69.05070269999942,,006,P021,2025_May_08_1218,ConditionRich,2021.2.3,59.97008692042236,
41.75,42.0,41,0.0,Stimuli/Blank.png,0,0,0.0,0,76,76,76,,,,,,,,,,,,,41.77161400000023,0.02161400000022695,None,69.80141449999974,69.80141449999974,69.80141449999974,69.80141449999974,69.80141449999974,69.80141449999974,69.80141449999974,69.80141449999974,69.80141449999974,69.80141449999974,,006,P021,2025_May_08_1218,ConditionRich,2021.2.3,59.97008692042236,
42.0,42.75,31,0.75,Stimuli/P009/things_girl_05s.jpg,0,0,0.0,0,77,77,77,,,,,,,,,,,,,42.01856080000016,0.01856080000015936,None,70.03489669999999,70.03489669999999,70.03489669999999,70.03489669999999,70.03489669999999,70.03489669999999,70.03489669999999,70.03489669999999,70.03489669999999,70.03489669999999,,006,P021,2025_May_08_1218,ConditionRich,2021.2.3,59.97008692042236,
42.75,43.0,41,0.0,Stimuli/Blank.png,0,0,0.0,0,78,78,78,,,,,,,,,,,,,42.75457019999976,0.004570199999761826,None,70.7855682999998,70.7855682999998,70.7855682999998,70.7855682999998,70.7855682999998,70.7855682999998,70.7855682999998,70.7855682999998,70.7855682999998,70.7855682999998,,006,P021,2025_May_08_1218,ConditionRich,2021.2.3,59.97008692042236,
43.0,43.75,31,0.75,Stimuli/P009/things_girl_05s.jpg,0,0,0.0,0,79,79,79,,,,,,,,,,,,,43.02062029999979,0.020620299999791314,None,71.0357884999994,71.0357884999994,71.0357884999994,71.0357884999994,71.0357884999994,71.0357884999994,71.0357884999994,71.0357884999994,71.0357884999994,71.0357884999994,,006,P021,2025_May_08_1218,ConditionRich,2021.2.3,59.97008692042236,
43.75,44.0,41,0.0,Stimuli/Blank.png,0,0,0.0,0,80,80,80,,,,,,,,,,,,,43.754521699999714,0.004521699999713746,None,71.76977369999986,71.76977369999986,71.76977369999986,71.76977369999986,71.76977369999986,71.76977369999986,71.76977369999986,71.76977369999986,71.76977369999986,71.76977369999986,,006,P021,2025_May_08_1218,ConditionRich,2021.2.3,59.97008692042236,
44.0,44.75,7,0.75,Stimuli/P009/sun_apiogxmvvzfmtsmj.jpg,0,0,0.0,0,81,81,81,,,,,,,,,,,,,44.00441060000048,0.0044106000004831,None,72.03666749999957,72.03666749999957,72.03666749999957,72.03666749999957,72.03666749999957,72.03666749999957,72.03666749999957,72.03666749999957,72.03666749999957,72.03666749999957,,006,P021,2025_May_08_1218,ConditionRich,2021.2.3,59.97008692042236,
44.75,45.0,41,0.0,Stimuli/Blank.png,0,0,0.0,0,82,82,82,,,,,,,,,,,,,44.770780200000445,0.020780200000444893,None,72.78729759999987,72.78729759999987,72.78729759999987,72.78729759999987,72.78729759999987,72.78729759999987,72.78729759999987,72.78729759999987,72.78729759999987,72.78729759999987,,006,P021,2025_May_08_1218,ConditionRich,2021.2.3,59.97008692042236,
45.0,45.75,7,0.75,Stimuli/P009/sun_apiogxmvvzfmtsmj.jpg,0,0,0.0,0,83,83,83,,,,,,,,,,,,,45.00565430000006,0.005654300000060175,None,73.03756049999993,73.03756049999993,73.03756049999993,73.03756049999993,73.03756049999993,73.03756049999993,73.03756049999993,73.03756049999993,73.03756049999993,73.03756049999993,,006,P021,2025_May_08_1218,ConditionRich,2021.2.3,59.97008692042236,
45.75,46.0,41,0.0,Stimuli/Blank.png,0,0,0.0,0,84,84,84,,,,,,,,,,,,,45.77176969999982,0.02176969999982248,None,73.78818689999935,73.78818689999935,73.78818689999935,73.78818689999935,73.78818689999935,73.78818689999935,73.78818689999935,73.78818689999935,73.78818689999935,73.78818689999935,,006,P021,2025_May_08_1218,ConditionRich,2021.2.3,59.97008692042236,
46.0,46.75,7,0.75,Stimuli/P009/sun_apiogxmvvzfmtsmj.jpg,0,0,0.0,0,85,85,85,,,,,,,,,,,,,46.005981899999824,0.005981899999824236,None,74.0217462999999,74.0217462999999,74.0217462999999,74.0217462999999,74.0217462999999,74.0217462999999,74.0217462999999,74.0217462999999,74.0217462999999,74.0217462999999,,006,P021,2025_May_08_1218,ConditionRich,2021.2.3,59.97008692042236,
46.75,47.0,41,0.0,Stimuli/Blank.png,0,0,0.0,0,86,86,86,,,,,,,,,,,,,46.75625889999992,0.006258899999920686,None,74.77242829999977,74.77242829999977,74.77242829999977,74.77242829999977,74.77242829999977,74.77242829999977,74.77242829999977,74.77242829999977,74.77242829999977,74.77242829999977,,006,P021,2025_May_08_1218,ConditionRich,2021.2.3,59.97008692042236,
47.0,47.75,7,0.75,Stimuli/P009/sun_apiogxmvvzfmtsmj.jpg,0,0,0.0,0,87,87,87,,,,,,,,,,,,,47.006202600000506,0.006202600000506209,None,75.03931709999961,75.03931709999961,75.03931709999961,75.03931709999961,75.03931709999961,75.03931709999961,75.03931709999961,75.03931709999961,75.03931709999961,75.03931709999961,,006,P021,2025_May_08_1218,ConditionRich,2021.2.3,59.97008692042236,
47.75,48.0,41,0.0,Stimuli/Blank.png,0,0,0.0,0,88,88,88,,,,,,,,,,,,,47.77413400000023,0.024134000000231026,None,75.7899983999996,75.7899983999996,75.7899983999996,75.7899983999996,75.7899983999996,75.7899983999996,75.7899983999996,75.7899983999996,75.7899983999996,75.7899983999996,,006,P021,2025_May_08_1218,ConditionRich,2021.2.3,59.97008692042236,
48.0,48.75,14,0.75,Stimuli/P009/sun_blaqxdebghixzyyw.jpg,0,0,0.0,0,89,89,89,,,,,,,,,,,,,48.00824410000041,0.008244100000410981,None,76.04019809999954,76.04019809999954,76.04019809999954,76.04019809999954,76.04019809999954,76.04019809999954,76.04019809999954,76.04019809999954,76.04019809999954,76.04019809999954,,006,P021,2025_May_08_1218,ConditionRich,2021.2.3,59.97008692042236,
48.75,49.0,41,0.0,Stimuli/Blank.png,0,0,0.0,0,90,90,90,,,,,,,,,,,,,48.7749088999999,0.024908899999900314,None,76.79087559999971,76.79087559999971,76.79087559999971,76.79087559999971,76.79087559999971,76.79087559999971,76.79087559999971,76.79087559999971,76.79087559999971,76.79087559999971,,006,P021,2025_May_08_1218,ConditionRich,2021.2.3,59.97008692042236,
49.0,49.75,14,0.75,Stimuli/P009/sun_blaqxdebghixzyyw.jpg,0,0,0.0,0,91,91,91,,,,,,,,,,,,,49.00994340000034,0.009943400000338443,None,77.04106559999946,77.04106559999946,77.04106559999946,77.04106559999946,77.04106559999946,77.04106559999946,77.04106559999946,77.04106559999946,77.04106559999946,77.04106559999946,,006,P021,2025_May_08_1218,ConditionRich,2021.2.3,59.97008692042236,
49.75,50.0,41,0.0,Stimuli/Blank.png,0,0,0.0,0,92,92,92,,,,,,,,,,,,,49.77546530000018,0.025465300000178104,None,77.79174689999945,77.79174689999945,77.79174689999945,77.79174689999945,77.79174689999945,77.79174689999945,77.79174689999945,77.79174689999945,77.79174689999945,77.79174689999945,,006,P021,2025_May_08_1218,ConditionRich,2021.2.3,59.97008692042236,
50.0,50.75,14,0.75,Stimuli/P009/sun_blaqxdebghixzyyw.jpg,0,0,0.0,0,93,93,93,,,,,,,,,,,,,50.00942930000019,0.009429300000192598,None,78.04197750000003,78.04197750000003,78.04197750000003,78.04197750000003,78.04197750000003,78.04197750000003,78.04197750000003,78.04197750000003,78.04197750000003,78.04197750000003,,006,P021,2025_May_08_1218,ConditionRich,2021.2.3,59.97008692042236,
50.75,51.0,41,0.0,Stimuli/Blank.png,0,0,0.0,0,94,94,94,,,,,,,,,,,,,50.776198900000054,0.026198900000053982,None,78.79263279999941,78.79263279999941,78.79263279999941,78.79263279999941,78.79263279999941,78.79263279999941,78.79263279999941,78.79263279999941,78.79263279999941,78.79263279999941,,006,P021,2025_May_08_1218,ConditionRich,2021.2.3,59.97008692042236,
51.0,51.75,14,0.75,Stimuli/P009/sun_blaqxdebghixzyyw.jpg,0,0,0.0,0,95,95,95,,,,,,,,,,,,,51.01025039999968,0.010250399999677029,None,79.04287719999957,79.04287719999957,79.04287719999957,79.04287719999957,79.04287719999957,79.04287719999957,79.04287719999957,79.04287719999957,79.04287719999957,79.04287719999957,,006,P021,2025_May_08_1218,ConditionRich,2021.2.3,59.97008692042236,
51.75,52.0,41,0.0,Stimuli/Blank.png,0,0,0.0,0,96,96,96,,,,,,,,,,,,,51.77952060000007,0.029520600000068953,None,79.81019729999934,79.81019729999934,79.81019729999934,79.81019729999934,79.81019729999934,79.81019729999934,79.81019729999934,79.81019729999934,79.81019729999934,79.81019729999934,,006,P021,2025_May_08_1218,ConditionRich,2021.2.3,59.97008692042236,
52.0,52.75,18,0.75,Stimuli/P009/sun_bwjdahsxcqepqqbm.jpg,0,0,0.0,0,97,97,97,,,,,,,,,,,,,52.030204599999706,0.03020459999970626,None,80.06042589999925,80.06042589999925,80.06042589999925,80.06042589999925,80.06042589999925,80.06042589999925,80.06042589999925,80.06042589999925,80.06042589999925,80.06042589999925,,006,P021,2025_May_08_1218,ConditionRich,2021.2.3,59.97008692042236,
52.75,53.0,41,0.0,Stimuli/Blank.png,0,0,0.0,0,98,98,98,,,,,,,,,,,,,52.77851699999974,0.02851699999973789,None,80.79440119999981,80.79440119999981,80.79440119999981,80.79440119999981,80.79440119999981,80.79440119999981,80.79440119999981,80.79440119999981,80.79440119999981,80.79440119999981,,006,P021,2025_May_08_1218,ConditionRich,2021.2.3,59.97008692042236,
53.0,53.75,18,0.75,Stimuli/P009/sun_bwjdahsxcqepqqbm.jpg,1,0,0.75,0,99,99,99,,,,,,,,,,,,,53.0118966,0.011896600000000035,1,81.04462469999999,81.04462469999999,81.04462469999999,81.04462469999999,81.04462469999999,81.04462469999999,81.04462469999999,81.76194739999937,81.04462469999999,81.04462469999999,0.445701900000131,006,P021,2025_May_08_1218,ConditionRich,2021.2.3,59.97008692042236,
53.75,54.0,41,0.0,Stimuli/Blank.png,0,0,0.0,0,100,100,100,,,,,,,,,,,,,53.778785999999855,0.02878599999985454,None,81.79528619999928,81.79528619999928,81.79528619999928,81.79528619999928,81.79528619999928,81.79528619999928,81.79528619999928,81.79528619999928,81.79528619999928,81.79528619999928,,006,P021,2025_May_08_1218,ConditionRich,2021.2.3,59.97008692042236,
54.0,54.75,18,0.75,Stimuli/P009/sun_bwjdahsxcqepqqbm.jpg,0,0,0.0,0,101,101,101,,,,,,,,,,,,,54.012411700000484,0.012411700000484416,None,82.02882489999956,82.02882489999956,82.02882489999956,82.02882489999956,82.02882489999956,82.02882489999956,82.02882489999956,82.02882489999956,82.02882489999956,82.02882489999956,,006,P021,2025_May_08_1218,ConditionRich,2021.2.3,59.97008692042236,
54.75,55.0,41,0.0,Stimuli/Blank.png,0,0,0.0,0,102,102,102,,,,,,,,,,,,,54.76596690000042,0.015966900000421447,None,82.79620129999967,82.79620129999967,82.79620129999967,82.79620129999967,82.79620129999967,82.79620129999967,82.79620129999967,82.79620129999967,82.79620129999967,82.79620129999967,,006,P021,2025_May_08_1218,ConditionRich,2021.2.3,59.97008692042236,
55.0,55.75,18,0.75,Stimuli/P009/sun_bwjdahsxcqepqqbm.jpg,0,0,0.0,0,103,103,103,,,,,,,,,,,,,55.01321780000035,0.013217800000347779,None,83.02971530000013,83.02971530000013,83.02971530000013,83.02971530000013,83.02971530000013,83.02971530000013,83.02971530000013,83.02971530000013,83.02971530000013,83.02971530000013,,006,P021,2025_May_08_1218,ConditionRich,2021.2.3,59.97008692042236,
55.75,56.0,41,0.0,Stimuli/Blank.png,0,0,0.0,0,104,104,104,,,,,,,,,,,,,55.76453500000025,0.014535000000250875,None,83.78038759999981,83.78038759999981,83.78038759999981,83.78038759999981,83.78038759999981,83.78038759999981,83.78038759999981,83.78038759999981,83.78038759999981,83.78038759999981,,006,P021,2025_May_08_1218,ConditionRich,2021.2.3,59.97008692042236,
56.0,56.75,38,0.75,Stimuli/P009/things_roadsweeper_05s.jpg,0,0,0.0,0,105,105,105,,,,,,,,,,,,,56.01490470000044,0.014904700000442972,None,84.03059380000013,84.03059380000013,84.03059380000013,84.03059380000013,84.03059380000013,84.03059380000013,84.03059380000013,84.03059380000013,84.03059380000013,84.03059380000013,,006,P021,2025_May_08_1218,ConditionRich,2021.2.3,59.97008692042236,
56.75,57.0,41,0.0,Stimuli/Blank.png,0,0,0.0,0,106,106,106,,,,,,,,,,,,,56.76629570000023,0.016295700000227953,None,84.79794299999958,84.79794299999958,84.79794299999958,84.79794299999958,84.79794299999958,84.79794299999958,84.79794299999958,84.79794299999958,84.79794299999958,84.79794299999958,,006,P021,2025_May_08_1218,ConditionRich,2021.2.3,59.97008692042236,
57.0,57.75,38,0.75,Stimuli/P009/things_roadsweeper_05s.jpg,0,0,0.0,0,107,107,107,,,,,,,,,,,,,57.015044700000544,0.015044700000544253,None,85.0314856999994,85.0314856999994,85.0314856999994,85.0314856999994,85.0314856999994,85.0314856999994,85.0314856999994,85.0314856999994,85.0314856999994,85.0314856999994,,006,P021,2025_May_08_1218,ConditionRich,2021.2.3,59.97008692042236,
57.75,58.0,41,0.0,Stimuli/Blank.png,0,0,0.0,0,108,108,108,,,,,,,,,,,,,57.75053639999987,0.000536399999873538,None,85.7654679999996,85.7654679999996,85.7654679999996,85.7654679999996,85.7654679999996,85.7654679999996,85.7654679999996,85.7654679999996,85.7654679999996,85.7654679999996,,006,P021,2025_May_08_1218,ConditionRich,2021.2.3,59.97008692042236,
58.0,58.75,38,0.75,Stimuli/P009/things_roadsweeper_05s.jpg,0,0,0.0,0,109,109,109,,,,,,,,,,,,,58.00007619999997,7.619999996677507e-05,None,86.03236669999933,86.03236669999933,86.03236669999933,86.03236669999933,86.03236669999933,86.03236669999933,86.03236669999933,86.03236669999933,86.03236669999933,86.03236669999933,,006,P021,2025_May_08_1218,ConditionRich,2021.2.3,59.97008692042236,
58.75,59.0,41,0.0,Stimuli/Blank.png,0,0,0.0,0,110,110,110,,,,,,,,,,,,,58.7665691000002,0.016569100000197068,None,86.78300679999938,86.78300679999938,86.78300679999938,86.78300679999938,86.78300679999938,86.78300679999938,86.78300679999938,86.78300679999938,86.78300679999938,86.78300679999938,,006,P021,2025_May_08_1218,ConditionRich,2021.2.3,59.97008692042236,
59.0,59.75,38,0.75,Stimuli/P009/things_roadsweeper_05s.jpg,0,0,0.0,0,111,111,111,,,,,,,,,,,,,58.99997400000029,-2.5999999706982635e-05,None,87.01656399999956,87.01656399999956,87.01656399999956,87.01656399999956,87.01656399999956,87.01656399999956,87.01656399999956,87.01656399999956,87.01656399999956,87.01656399999956,,006,P021,2025_May_08_1218,ConditionRich,2021.2.3,59.97008692042236,
59.75,60.0,41,0.0,Stimuli/Blank.png,0,0,0.0,0,112,112,112,,,,,,,,,,,,,59.750740499999665,0.0007404999996651895,None,87.76723020000009,87.76723020000009,87.76723020000009,87.76723020000009,87.76723020000009,87.76723020000009,87.76723020000009,87.76723020000009,87.76723020000009,87.76723020000009,,006,P021,2025_May_08_1218,ConditionRich,2021.2.3,59.97008692042236,
60.0,60.75,28,0.75,Stimuli/P009/things_face_05s.jpg,0,0,0.0,0,113,113,113,,,,,,,,,,,,,60.00181520000024,0.0018152000002373825,None,88.0341472,88.0341472,88.0341472,88.0341472,88.0341472,88.0341472,88.0341472,88.0341472,88.0341472,88.0341472,,006,P021,2025_May_08_1218,ConditionRich,2021.2.3,59.97008692042236,
60.75,61.0,41,0.0,Stimuli/Blank.png,0,0,0.0,0,114,114,114,,,,,,,,,,,,,60.77012829999967,0.020128299999669252,None,88.80148269999972,88.80148269999972,88.80148269999972,88.80148269999972,88.80148269999972,88.80148269999972,88.80148269999972,88.80148269999972,88.80148269999972,88.80148269999972,,006,P021,2025_May_08_1218,ConditionRich,2021.2.3,59.97008692042236,
61.0,61.75,28,0.75,Stimuli/P009/things_face_05s.jpg,0,0,0.0,0,115,115,115,,,,,,,,,,,,,61.01884500000051,0.01884500000051048,None,89.03501830000005,89.03501830000005,89.03501830000005,89.03501830000005,89.03501830000005,89.03501830000005,89.03501830000005,89.03501830000005,89.03501830000005,89.03501830000005,,006,P021,2025_May_08_1218,ConditionRich,2021.2.3,59.97008692042236,
61.75,62.0,41,0.0,Stimuli/Blank.png,0,0,0.0,0,116,116,116,,,,,,,,,,,,,61.75459159999991,0.004591599999912432,None,89.78568949999953,89.78568949999953,89.78568949999953,89.78568949999953,89.78568949999953,89.78568949999953,89.78568949999953,89.78568949999953,89.78568949999953,89.78568949999953,,006,P021,2025_May_08_1218,ConditionRich,2021.2.3,59.97008692042236,
62.0,62.75,28,0.75,Stimuli/P009/things_face_05s.jpg,0,0,0.0,0,117,117,117,,,,,,,,,,,,,62.01949810000042,0.019498100000419072,None,90.03589949999969,90.03589949999969,90.03589949999969,90.03589949999969,90.03589949999969,90.03589949999969,90.03589949999969,90.03589949999969,90.03589949999969,90.03589949999969,,006,P021,2025_May_08_1218,ConditionRich,2021.2.3,59.97008692042236,
62.75,63.0,41,0.0,Stimuli/Blank.png,0,0,0.0,0,118,118,118,,,,,,,,,,,,,62.75433470000007,0.004334700000072189,None,90.76990359999945,90.76990359999945,90.76990359999945,90.76990359999945,90.76990359999945,90.76990359999945,90.76990359999945,90.76990359999945,90.76990359999945,90.76990359999945,,006,P021,2025_May_08_1218,ConditionRich,2021.2.3,59.97008692042236,
63.0,63.75,28,0.75,Stimuli/P009/things_face_05s.jpg,0,0,0.0,0,119,119,119,,,,,,,,,,,,,63.004221700000016,0.004221700000016426,None,91.02012839999952,91.02012839999952,91.02012839999952,91.02012839999952,91.02012839999952,91.02012839999952,91.02012839999952,91.02012839999952,91.02012839999952,91.02012839999952,,006,P021,2025_May_08_1218,ConditionRich,2021.2.3,59.97008692042236,
63.75,64.0,41,0.0,Stimuli/Blank.png,0,0,0.0,0,120,120,120,,,,,,,,,,,,,63.754807500000425,0.004807500000424625,None,91.77076919999945,91.77076919999945,91.77076919999945,91.77076919999945,91.77076919999945,91.77076919999945,91.77076919999945,91.77076919999945,91.77076919999945,91.77076919999945,,006,P021,2025_May_08_1218,ConditionRich,2021.2.3,59.97008692042236,
64.0,64.75,40,0.75,Stimuli/P009/things_woman_05s.jpg,0,0,0.0,0,121,121,121,,,,,,,,,,,,,64.0053127000001,0.005312700000104087,None,92.02098839999962,92.02098839999962,92.02098839999962,92.02098839999962,92.02098839999962,92.02098839999962,92.02098839999962,92.02098839999962,92.02098839999962,92.02098839999962,,006,P021,2025_May_08_1218,ConditionRich,2021.2.3,59.97008692042236,
64.75,65.0,41,0.0,Stimuli/Blank.png,0,0,0.0,0,122,122,122,,,,,,,,,,,,,64.75518180000017,0.005181800000173098,None,92.77164639999955,92.77164639999955,92.77164639999955,92.77164639999955,92.77164639999955,92.77164639999955,92.77164639999955,92.77164639999955,92.77164639999955,92.77164639999955,,006,P021,2025_May_08_1218,ConditionRich,2021.2.3,59.97008692042236,
65.0,65.75,40,0.75,Stimuli/P009/things_woman_05s.jpg,0,0,0.0,0,123,123,123,,,,,,,,,,,,,65.00527299999976,0.005272999999760941,None,93.02186729999994,93.02186729999994,93.02186729999994,93.02186729999994,93.02186729999994,93.02186729999994,93.02186729999994,93.02186729999994,93.02186729999994,93.02186729999994,,006,P021,2025_May_08_1218,ConditionRich,2021.2.3,59.97008692042236,
65.75,66.0,41,0.0,Stimuli/Blank.png,0,0,0.0,0,124,124,124,,,,,,,,,,,,,65.75688869999976,0.006888699999763048,None,93.77253599999949,93.77253599999949,93.77253599999949,93.77253599999949,93.77253599999949,93.77253599999949,93.77253599999949,93.77253599999949,93.77253599999949,93.77253599999949,,006,P021,2025_May_08_1218,ConditionRich,2021.2.3,59.97008692042236,
66.0,66.75,40,0.75,Stimuli/P009/things_woman_05s.jpg,0,0,0.0,0,125,125,125,,,,,,,,,,,,,66.00637689999985,0.0063768999998501386,None,94.0394452999999,94.0394452999999,94.0394452999999,94.0394452999999,94.0394452999999,94.0394452999999,94.0394452999999,94.0394452999999,94.0394452999999,94.0394452999999,,006,P021,2025_May_08_1218,ConditionRich,2021.2.3,59.97008692042236,
66.75,67.0,41,0.0,Stimuli/Blank.png,0,0,0.0,0,126,126,126,,,,,,,,,,,,,66.77509670000018,0.025096700000176497,None,94.79010649999964,94.79010649999964,94.79010649999964,94.79010649999964,94.79010649999964,94.79010649999964,94.79010649999964,94.79010649999964,94.79010649999964,94.79010649999964,,006,P021,2025_May_08_1218,ConditionRich,2021.2.3,59.97008692042236,
67.0,67.75,40,0.75,Stimuli/P009/things_woman_05s.jpg,0,0,0.0,0,127,127,127,,,,,,,,,,,,,67.01001400000041,0.010014000000410306,None,95.04032909999933,95.04032909999933,95.04032909999933,95.04032909999933,95.04032909999933,95.04032909999933,95.04032909999933,95.04032909999933,95.04032909999933,95.04032909999933,,006,P021,2025_May_08_1218,ConditionRich,2021.2.3,59.97008692042236,
67.75,68.0,41,0.0,Stimuli/Blank.png,0,0,0.0,0,128,128,128,,,,,,,,,,,,,67.77515459999995,0.025154599999950733,None,95.79099289999976,95.79099289999976,95.79099289999976,95.79099289999976,95.79099289999976,95.79099289999976,95.79099289999976,95.79099289999976,95.79099289999976,95.79099289999976,,006,P021,2025_May_08_1218,ConditionRich,2021.2.3,59.97008692042236,
68.0,68.75,10,0.75,Stimuli/P009/sun_bdkttewvyfdarikm.jpg,0,0,0.0,0,129,129,129,,,,,,,,,,,,,68.0080665000005,0.00806650000049558,None,96.02452189999985,96.02452189999985,96.02452189999985,96.02452189999985,96.02452189999985,96.02452189999985,96.02452189999985,96.02452189999985,96.02452189999985,96.02452189999985,,006,P021,2025_May_08_1218,ConditionRich,2021.2.3,59.97008692042236,
68.75,69.0,41,0.0,Stimuli/Blank.png,0,0,0.0,0,130,130,130,,,,,,,,,,,,,68.76029139999991,0.010291399999914574,None,96.7751905999994,96.7751905999994,96.7751905999994,96.7751905999994,96.7751905999994,96.7751905999994,96.7751905999994,96.7751905999994,96.7751905999994,96.7751905999994,,006,P021,2025_May_08_1218,ConditionRich,2021.2.3,59.97008692042236,
69.0,69.75,10,0.75,Stimuli/P009/sun_bdkttewvyfdarikm.jpg,0,0,0.0,0,131,131,131,,,,,,,,,,,,,69.00881490000029,0.008814900000288617,None,97.02541930000007,97.02541930000007,97.02541930000007,97.02541930000007,97.02541930000007,97.02541930000007,97.02541930000007,97.02541930000007,97.02541930000007,97.02541930000007,,006,P021,2025_May_08_1218,ConditionRich,2021.2.3,59.97008692042236,
69.75,70.0,41,0.0,Stimuli/Blank.png,0,0,0.0,0,132,132,132,,,,,,,,,,,,,69.76021010000022,0.010210100000222155,None,97.77608220000002,97.77608220000002,97.77608220000002,97.77608220000002,97.77608220000002,97.77608220000002,97.77608220000002,97.77608220000002,97.77608220000002,97.77608220000002,,006,P021,2025_May_08_1218,ConditionRich,2021.2.3,59.97008692042236,
70.0,70.75,10,0.75,Stimuli/P009/sun_bdkttewvyfdarikm.jpg,0,0,0.0,0,133,133,133,,,,,,,,,,,,,70.01036829999975,0.010368299999754527,None,98.04298039999958,98.04298039999958,98.04298039999958,98.04298039999958,98.04298039999958,98.04298039999958,98.04298039999958,98.04298039999958,98.04298039999958,98.04298039999958,,006,P021,2025_May_08_1218,ConditionRich,2021.2.3,59.97008692042236,
70.75,71.0,41,0.0,Stimuli/Blank.png,0,0,0.0,0,134,134,134,,,,,,,,,,,,,70.7800256999999,0.03002569999989646,None,98.81036669999958,98.81036669999958,98.81036669999958,98.81036669999958,98.81036669999958,98.81036669999958,98.81036669999958,98.81036669999958,98.81036669999958,98.81036669999958,,006,P021,2025_May_08_1218,ConditionRich,2021.2.3,59.97008692042236,
71.0,71.75,10,0.75,Stimuli/P009/sun_bdkttewvyfdarikm.jpg,0,0,0.0,0,135,135,135,,,,,,,,,,,,,71.02963100000034,0.029631000000335916,None,99.0605515999996,99.0605515999996,99.0605515999996,99.0605515999996,99.0605515999996,99.0605515999996,99.0605515999996,99.0605515999996,99.0605515999996,99.0605515999996,,006,P021,2025_May_08_1218,ConditionRich,2021.2.3,59.97008692042236,
71.75,72.0,41,0.0,Stimuli/Blank.png,0,0,0.0,0,136,136,136,,,,,,,,,,,,,71.78001469999981,0.030014699999810546,None,99.81121199999961,99.81121199999961,99.81121199999961,99.81121199999961,99.81121199999961,99.81121199999961,99.81121199999961,99.81121199999961,99.81121199999961,99.81121199999961,,006,P021,2025_May_08_1218,ConditionRich,2021.2.3,59.97008692042236,
72.0,72.75,25,0.75,Stimuli/P009/things_clothespin_05s.jpg,0,0,0.0,0,137,137,137,,,,,,,,,,,,,72.03015959999993,0.030159599999933562,None,100.06144259999928,100.06144259999928,100.06144259999928,100.06144259999928,100.06144259999928,100.06144259999928,100.06144259999928,100.06144259999928,100.06144259999928,100.06144259999928,,006,P021,2025_May_08_1218,ConditionRich,2021.2.3,59.97008692042236,
72.75,73.0,41,0.0,Stimuli/Blank.png,0,0,0.0,0,138,138,138,,,,,,,,,,,,,72.77881770000022,0.028817700000217883,None,100.79540759999963,100.79540759999963,100.79540759999963,100.79540759999963,100.79540759999963,100.79540759999963,100.79540759999963,100.79540759999963,100.79540759999963,100.79540759999963,,006,P021,2025_May_08_1218,ConditionRich,2021.2.3,59.97008692042236,
73.0,73.75,25,0.75,Stimuli/P009/things_clothespin_05s.jpg,0,0,0.0,0,139,139,139,,,,,,,,,,,,,73.01340040000014,0.01340040000013687,None,101.02894990000004,101.02894990000004,101.02894990000004,101.02894990000004,101.02894990000004,101.02894990000004,101.02894990000004,101.02894990000004,101.02894990000004,101.02894990000004,,006,P021,2025_May_08_1218,ConditionRich,2021.2.3,59.97008692042236,
73.75,74.0,41,0.0,Stimuli/Blank.png,0,0,0.0,0,140,140,140,,,,,,,,,,,,,73.76411009999993,0.014110099999925296,None,101.7796142999996,101.7796142999996,101.7796142999996,101.7796142999996,101.7796142999996,101.7796142999996,101.7796142999996,101.7796142999996,101.7796142999996,101.7796142999996,,006,P021,2025_May_08_1218,ConditionRich,2021.2.3,59.97008692042236,
74.0,74.75,25,0.75,Stimuli/P009/things_clothespin_05s.jpg,0,0,0.0,0,141,141,141,,,,,,,,,,,,,74.01462110000011,0.014621100000113074,None,102.04652679999981,102.04652679999981,102.04652679999981,102.04652679999981,102.04652679999981,102.04652679999981,102.04652679999981,102.04652679999981,102.04652679999981,102.04652679999981,,006,P021,2025_May_08_1218,ConditionRich,2021.2.3,59.97008692042236,
74.75,75.0,41,0.0,Stimuli/Blank.png,0,0,0.0,0,142,142,142,,,,,,,,,,,,,74.78115640000033,0.031156400000327267,None,102.7971794999994,102.7971794999994,102.7971794999994,102.7971794999994,102.7971794999994,102.7971794999994,102.7971794999994,102.7971794999994,102.7971794999994,102.7971794999994,,006,P021,2025_May_08_1218,ConditionRich,2021.2.3,59.97008692042236,
75.0,75.75,25,0.75,Stimuli/P009/things_clothespin_05s.jpg,0,0,0.0,0,143,143,143,,,,,,,,,,,,,75.0153135999999,0.015313599999899452,None,103.0474193,103.0474193,103.0474193,103.0474193,103.0474193,103.0474193,103.0474193,103.0474193,103.0474193,103.0474193,,006,P021,2025_May_08_1218,ConditionRich,2021.2.3,59.97008692042236,
75.75,76.0,41,0.0,Stimuli/Blank.png,0,0,0.0,0,144,144,144,,,,,,,,,,,,,75.76597399999991,0.015973999999914668,None,103.78138539999964,103.78138539999964,103.78138539999964,103.78138539999964,103.78138539999964,103.78138539999964,103.78138539999964,103.78138539999964,103.78138539999964,103.78138539999964,,006,P021,2025_May_08_1218,ConditionRich,2021.2.3,59.97008692042236,
76.0,76.75,4,0.75,Stimuli/P009/sun_afkzdukwewwzqtmr.jpg,0,0,0.0,0,145,145,145,,,,,,,,,,,,,75.9984744000003,-0.0015255999996952596,None,104.01492099999996,104.01492099999996,104.01492099999996,104.01492099999996,104.01492099999996,104.01492099999996,104.01492099999996,104.01492099999996,104.01492099999996,104.01492099999996,,006,P021,2025_May_08_1218,ConditionRich,2021.2.3,59.97008692042236,
76.75,77.0,41,0.0,Stimuli/Blank.png,0,0,0.0,0,146,146,146,,,,,,,,,,,,,76.7499243000002,-7.569999979750719e-05,None,104.76558459999978,104.76558459999978,104.76558459999978,104.76558459999978,104.76558459999978,104.76558459999978,104.76558459999978,104.76558459999978,104.76558459999978,104.76558459999978,,006,P021,2025_May_08_1218,ConditionRich,2021.2.3,59.97008692042236,
77.0,77.75,4,0.75,Stimuli/P009/sun_afkzdukwewwzqtmr.jpg,0,0,0.0,0,147,147,147,,,,,,,,,,,,,77.00014720000036,0.0001472000003559515,None,105.01580860000013,105.01580860000013,105.01580860000013,105.01580860000013,105.01580860000013,105.01580860000013,105.01580860000013,105.01580860000013,105.01580860000013,105.01580860000013,,006,P021,2025_May_08_1218,ConditionRich,2021.2.3,59.97008692042236,
77.75,78.0,41,0.0,Stimuli/Blank.png,0,0,0.0,0,148,148,148,,,,,,,,,,,,,77.75105260000055,0.0010526000005484093,None,105.76647099999991,105.76647099999991,105.76647099999991,105.76647099999991,105.76647099999991,105.76647099999991,105.76647099999991,105.76647099999991,105.76647099999991,105.76647099999991,,006,P021,2025_May_08_1218,ConditionRich,2021.2.3,59.97008692042236,
78.0,78.75,4,0.75,Stimuli/P009/sun_afkzdukwewwzqtmr.jpg,0,0,0.0,0,149,149,149,,,,,,,,,,,,,78.00036170000021,0.000361700000212295,None,106.03336859999945,106.03336859999945,106.03336859999945,106.03336859999945,106.03336859999945,106.03336859999945,106.03336859999945,106.03336859999945,106.03336859999945,106.03336859999945,,006,P021,2025_May_08_1218,ConditionRich,2021.2.3,59.97008692042236,
78.75,79.0,41,0.0,Stimuli/Blank.png,0,0,0.0,0,150,150,150,,,,,,,,,,,,,78.76971849999973,0.01971849999972619,None,106.80068499999925,106.80068499999925,106.80068499999925,106.80068499999925,106.80068499999925,106.80068499999925,106.80068499999925,106.80068499999925,106.80068499999925,106.80068499999925,,006,P021,2025_May_08_1218,ConditionRich,2021.2.3,59.97008692042236,
79.0,79.75,4,0.75,Stimuli/P009/sun_afkzdukwewwzqtmr.jpg,1,0,0.75,0,151,151,151,,,,,,,,,,,,,79.01983519999976,0.019835199999761244,1,107.05093849999957,107.05093849999957,107.05093849999957,107.05093849999957,107.05093849999957,107.05093849999957,107.05093849999957,None,107.05093849999957,107.05093849999957,0.5524520999997549,006,P021,2025_May_08_1218,ConditionRich,2021.2.3,59.97008692042236,
79.75,80.0,41,0.0,Stimuli/Blank.png,0,0,0.0,0,152,152,152,,,,,,,,,,,,,79.76947220000056,0.019472200000564044,None,107.78492749999987,107.78492749999987,107.78492749999987,107.78492749999987,107.78492749999987,107.78492749999987,107.78492749999987,107.78492749999987,107.78492749999987,107.78492749999987,,006,P021,2025_May_08_1218,ConditionRich,2021.2.3,59.97008692042236,
80.0,80.75,9,0.75,Stimuli/P009/sun_bdjkvwqqqycuixtc.jpg,0,0,0.0,0,153,153,153,,,,,,,,,,,,,80.00271330000032,0.0027133000003232155,None,108.01846909999949,108.01846909999949,108.01846909999949,108.01846909999949,108.01846909999949,108.01846909999949,108.01846909999949,108.01846909999949,108.01846909999949,108.01846909999949,,006,P021,2025_May_08_1218,ConditionRich,2021.2.3,59.97008692042236,
80.75,81.0,41,0.0,Stimuli/Blank.png,0,0,0.0,0,154,154,154,,,,,,,,,,,,,80.75482910000028,0.004829100000279141,None,108.7858182,108.7858182,108.7858182,108.7858182,108.7858182,108.7858182,108.7858182,108.7858182,108.7858182,108.7858182,,006,P021,2025_May_08_1218,ConditionRich,2021.2.3,59.97008692042236,
81.0,81.75,9,0.75,Stimuli/P009/sun_bdjkvwqqqycuixtc.jpg,0,0,0.0,0,155,155,155,,,,,,,,,,,,,81.02051990000018,0.020519900000181224,None,109.05268329999944,109.05268329999944,109.05268329999944,109.05268329999944,109.05268329999944,109.05268329999944,109.05268329999944,109.05268329999944,109.05268329999944,109.05268329999944,,006,P021,2025_May_08_1218,ConditionRich,2021.2.3,59.97008692042236,
81.75,82.0,41,0.0,Stimuli/Blank.png,0,0,0.0,0,156,156,156,,,,,,,,,,,,,81.77094080000006,0.020940800000062154,None,109.78668519999974,109.78668519999974,109.78668519999974,109.78668519999974,109.78668519999974,109.78668519999974,109.78668519999974,109.78668519999974,109.78668519999974,109.78668519999974,,006,P021,2025_May_08_1218,ConditionRich,2021.2.3,59.97008692042236,
82.0,82.75,9,0.75,Stimuli/P009/sun_bdjkvwqqqycuixtc.jpg,0,0,0.0,0,157,157,157,,,,,,,,,,,,,82.00373620000028,0.0037362000002758577,None,110.02021869999953,110.02021869999953,110.02021869999953,110.02021869999953,110.02021869999953,110.02021869999953,110.02021869999953,110.02021869999953,110.02021869999953,110.02021869999953,,006,P021,2025_May_08_1218,ConditionRich,2021.2.3,59.97008692042236,
82.75,83.0,41,0.0,Stimuli/Blank.png,0,0,0.0,0,158,158,158,,,,,,,,,,,,,82.75434219999988,0.004342199999882723,None,110.77088129999993,110.77088129999993,110.77088129999993,110.77088129999993,110.77088129999993,110.77088129999993,110.77088129999993,110.77088129999993,110.77088129999993,110.77088129999993,,006,P021,2025_May_08_1218,ConditionRich,2021.2.3,59.97008692042236,
83.0,83.75,9,0.75,Stimuli/P009/sun_bdjkvwqqqycuixtc.jpg,0,0,0.0,0,159,159,159,,,,,,,,,,,,,83.00454009999976,0.00454009999975824,None,111.02111409999998,111.02111409999998,111.02111409999998,111.02111409999998,111.02111409999998,111.02111409999998,111.02111409999998,111.02111409999998,111.02111409999998,111.02111409999998,,006,P021,2025_May_08_1218,ConditionRich,2021.2.3,59.97008692042236,
83.75,84.0,41,0.0,Stimuli/Blank.png,0,0,0.0,0,160,160,160,,,,,,,,,,,,,83.75606100000005,0.006061000000045169,None,111.7717705999994,111.7717705999994,111.7717705999994,111.7717705999994,111.7717705999994,111.7717705999994,111.7717705999994,111.7717705999994,111.7717705999994,111.7717705999994,,006,P021,2025_May_08_1218,ConditionRich,2021.2.3,59.97008692042236,
84.0,100.0,0,0.0,Stimuli/Blank.png,1,10,10.75,0,161,161,161,,,,,,,,,,,,,84.00555170000007,0.005551700000069104,1,112.0219890999997,112.0219890999997,112.0219890999997,112.0219890999997,112.0219890999997,112.0219890999997,122.01417469999978,122.74815779999972,112.0219890999997,112.0219890999997,10.75638550000076,006,P021,2025_May_08_1218,ConditionRich,2021.2.3,59.97008692042236,
100.0,100.75,27,0.75,Stimuli/P009/things_curling_iron_05s.jpg,0,0,0.0,0,162,162,162,,,,,,,,,,,,,100.00359440000011,0.003594400000110909,None,128.01945689999957,128.01945689999957,128.01945689999957,128.01945689999957,128.01945689999957,128.01945689999957,128.01945689999957,128.01945689999957,128.01945689999957,128.01945689999957,,006,P021,2025_May_08_1218,ConditionRich,2021.2.3,59.97008692042236,
100.75,101.0,41,0.0,Stimuli/Blank.png,0,0,0.0,0,163,163,163,,,,,,,,,,,,,100.75351640000008,0.0035164000000804663,None,128.77016679999997,128.77016679999997,128.77016679999997,128.77016679999997,128.77016679999997,128.77016679999997,128.77016679999997,128.77016679999997,128.77016679999997,128.77016679999997,,006,P021,2025_May_08_1218,ConditionRich,2021.2.3,59.97008692042236,
101.0,101.75,27,0.75,Stimuli/P009/things_curling_iron_05s.jpg,0,0,0.0,0,164,164,164,,,,,,,,,,,,,101.00444930000049,0.00444930000048771,None,129.03702519999933,129.03702519999933,129.03702519999933,129.03702519999933,129.03702519999933,129.03702519999933,129.03702519999933,129.03702519999933,129.03702519999933,129.03702519999933,,006,P021,2025_May_08_1218,ConditionRich,2021.2.3,59.97008692042236,
101.75,102.0,41,0.0,Stimuli/Blank.png,0,0,0.0,0,165,165,165,,,,,,,,,,,,,101.77190510000037,0.021905100000367383,None,129.7876927999996,129.7876927999996,129.7876927999996,129.7876927999996,129.7876927999996,129.7876927999996,129.7876927999996,129.7876927999996,129.7876927999996,129.7876927999996,,006,P021,2025_May_08_1218,ConditionRich,2021.2.3,59.97008692042236,
102.0,102.75,27,0.75,Stimuli/P009/things_curling_iron_05s.jpg,0,0,0.0,0,166,166,166,,,,,,,,,,,,,102.00527669999974,0.005276699999740231,None,130.02124259999982,130.02124259999982,130.02124259999982,130.02124259999982,130.02124259999982,130.02124259999982,130.02124259999982,130.02124259999982,130.02124259999982,130.02124259999982,,006,P021,2025_May_08_1218,ConditionRich,2021.2.3,59.97008692042236,
102.75,103.0,41,0.0,Stimuli/Blank.png,0,0,0.0,0,167,167,167,,,,,,,,,,,,,102.75591090000034,0.005910900000344554,None,130.77189539999927,130.77189539999927,130.77189539999927,130.77189539999927,130.77189539999927,130.77189539999927,130.77189539999927,130.77189539999927,130.77189539999927,130.77189539999927,,006,P021,2025_May_08_1218,ConditionRich,2021.2.3,59.97008692042236,
103.0,103.75,27,0.75,Stimuli/P009/things_curling_iron_05s.jpg,0,0,0.0,0,168,168,168,,,,,,,,,,,,,103.00559720000001,0.005597200000011071,None,131.02210680000007,131.02210680000007,131.02210680000007,131.02210680000007,131.02210680000007,131.02210680000007,131.02210680000007,131.02210680000007,131.02210680000007,131.02210680000007,,006,P021,2025_May_08_1218,ConditionRich,2021.2.3,59.97008692042236,
103.75,104.0,41,0.0,Stimuli/Blank.png,0,0,0.0,0,169,169,169,,,,,,,,,,,,,103.75716100000045,0.007161000000451168,None,131.77274080000007,131.77274080000007,131.77274080000007,131.77274080000007,131.77274080000007,131.77274080000007,131.77274080000007,131.77274080000007,131.77274080000007,131.77274080000007,,006,P021,2025_May_08_1218,ConditionRich,2021.2.3,59.97008692042236,
104.0,104.75,35,0.75,Stimuli/P009/things_mushroom_05n.jpg,0,0,0.0,0,170,170,170,,,,,,,,,,,,,104.00645989999975,0.0064598999997542705,None,132.03969909999978,132.03969909999978,132.03969909999978,132.03969909999978,132.03969909999978,132.03969909999978,132.03969909999978,132.03969909999978,132.03969909999978,132.03969909999978,,006,P021,2025_May_08_1218,ConditionRich,2021.2.3,59.97008692042236,
104.75,105.0,41,0.0,Stimuli/Blank.png,0,0,0.0,0,171,171,171,,,,,,,,,,,,,104.7750573000003,0.02505730000029871,None,132.79035829999975,132.79035829999975,132.79035829999975,132.79035829999975,132.79035829999975,132.79035829999975,132.79035829999975,132.79035829999975,132.79035829999975,132.79035829999975,,006,P021,2025_May_08_1218,ConditionRich,2021.2.3,59.97008692042236,
105.0,105.75,35,0.75,Stimuli/P009/things_mushroom_05n.jpg,0,0,0.0,0,172,172,172,,,,,,,,,,,,,105.0096110000004,0.009611000000404601,None,133.04056219999984,133.04056219999984,133.04056219999984,133.04056219999984,133.04056219999984,133.04056219999984,133.04056219999984,133.04056219999984,133.04056219999984,133.04056219999984,,006,P021,2025_May_08_1218,ConditionRich,2021.2.3,59.97008692042236,
105.75,106.0,41,0.0,Stimuli/Blank.png,0,0,0.0,0,173,173,173,,,,,,,,,,,,,105.77620610000031,0.026206100000308652,None,133.79124799999954,133.79124799999954,133.79124799999954,133.79124799999954,133.79124799999954,133.79124799999954,133.79124799999954,133.79124799999954,133.79124799999954,133.79124799999954,,006,P021,2025_May_08_1218,ConditionRich,2021.2.3,59.97008692042236,
106.0,106.75,35,0.75,Stimuli/P009/things_mushroom_05n.jpg,0,0,0.0,0,174,174,174,,,,,,,,,,,,,106.00934779999989,0.009347799999886774,None,134.02476729999944,134.02476729999944,134.02476729999944,134.02476729999944,134.02476729999944,134.02476729999944,134.02476729999944,134.02476729999944,134.02476729999944,134.02476729999944,,006,P021,2025_May_08_1218,ConditionRich,2021.2.3,59.97008692042236,
106.75,107.0,41,0.0,Stimuli/Blank.png,0,0,0.0,0,175,175,175,,,,,,,,,,,,,106.75963010000032,0.009630100000322273,None,134.77543139999943,134.77543139999943,134.77543139999943,134.77543139999943,134.77543139999943,134.77543139999943,134.77543139999943,134.77543139999943,134.77543139999943,134.77543139999943,,006,P021,2025_May_08_1218,ConditionRich,2021.2.3,59.97008692042236,
107.0,107.75,35,0.75,Stimuli/P009/things_mushroom_05n.jpg,0,0,0.0,0,176,176,176,,,,,,,,,,,,,107.01030379999975,0.010303799999746843,None,135.04233339999973,135.04233339999973,135.04233339999973,135.04233339999973,135.04233339999973,135.04233339999973,135.04233339999973,135.04233339999973,135.04233339999973,135.04233339999973,,006,P021,2025_May_08_1218,ConditionRich,2021.2.3,59.97008692042236,
107.75,108.0,41,0.0,Stimuli/Blank.png,0,0,0.0,0,177,177,177,,,,,,,,,,,,,107.77719359999992,0.02719359999991866,None,135.7930768999995,135.7930768999995,135.7930768999995,135.7930768999995,135.7930768999995,135.7930768999995,135.7930768999995,135.7930768999995,135.7930768999995,135.7930768999995,,006,P021,2025_May_08_1218,ConditionRich,2021.2.3,59.97008692042236,
108.0,108.75,20,0.75,Stimuli/P009/sun_ddsiwinthvyejghq.jpg,0,0,0.0,0,178,178,178,,,,,,,,,,,,,108.01070150000032,0.010701500000322994,None,136.02653659999942,136.02653659999942,136.02653659999942,136.02653659999942,136.02653659999942,136.02653659999942,136.02653659999942,136.02653659999942,136.02653659999942,136.02653659999942,,006,P021,2025_May_08_1218,ConditionRich,2021.2.3,59.97008692042236,
108.75,109.0,41,0.0,Stimuli/Blank.png,0,0,0.0,0,179,179,179,,,,,,,,,,,,,108.76152920000004,0.011529200000040873,None,136.77720520000003,136.77720520000003,136.77720520000003,136.77720520000003,136.77720520000003,136.77720520000003,136.77720520000003,136.77720520000003,136.77720520000003,136.77720520000003,,006,P021,2025_May_08_1218,ConditionRich,2021.2.3,59.97008692042236,
109.0,109.75,20,0.75,Stimuli/P009/sun_ddsiwinthvyejghq.jpg,0,0,0.0,0,180,180,180,,,,,,,,,,,,,109.01180339999974,0.01180339999973512,None,137.0441166999999,137.0441166999999,137.0441166999999,137.0441166999999,137.0441166999999,137.0441166999999,137.0441166999999,137.0441166999999,137.0441166999999,137.0441166999999,,006,P021,2025_May_08_1218,ConditionRich,2021.2.3,59.97008692042236,
109.75,110.0,41,0.0,Stimuli/Blank.png,0,0,0.0,0,181,181,181,,,,,,,,,,,,,109.77914400000009,0.029144000000087544,None,137.7947680999996,137.7947680999996,137.7947680999996,137.7947680999996,137.7947680999996,137.7947680999996,137.7947680999996,137.7947680999996,137.7947680999996,137.7947680999996,,006,P021,2025_May_08_1218,ConditionRich,2021.2.3,59.97008692042236,
110.0,110.75,20,0.75,Stimuli/P009/sun_ddsiwinthvyejghq.jpg,0,0,0.0,0,182,182,182,,,,,,,,,,,,,110.01184439999997,0.011844399999972666,None,138.0283058999994,138.0283058999994,138.0283058999994,138.0283058999994,138.0283058999994,138.0283058999994,138.0283058999994,138.0283058999994,138.0283058999994,138.0283058999994,,006,P021,2025_May_08_1218,ConditionRich,2021.2.3,59.97008692042236,
110.75,111.0,41,0.0,Stimuli/Blank.png,0,0,0.0,0,183,183,183,,,,,,,,,,,,,110.76454590000048,0.014545900000484835,None,138.79566539999996,138.79566539999996,138.79566539999996,138.79566539999996,138.79566539999996,138.79566539999996,138.79566539999996,138.79566539999996,138.79566539999996,138.79566539999996,,006,P021,2025_May_08_1218,ConditionRich,2021.2.3,59.97008692042236,
111.0,111.75,20,0.75,Stimuli/P009/sun_ddsiwinthvyejghq.jpg,0,0,0.0,0,184,184,184,,,,,,,,,,,,,111.03072530000009,0.030725300000085554,None,139.06252760000007,139.06252760000007,139.06252760000007,139.06252760000007,139.06252760000007,139.06252760000007,139.06252760000007,139.06252760000007,139.06252760000007,139.06252760000007,,006,P021,2025_May_08_1218,ConditionRich,2021.2.3,59.97008692042236,
111.75,112.0,41,0.0,Stimuli/Blank.png,0,0,0.0,0,185,185,185,,,,,,,,,,,,,111.78089470000032,0.030894700000317243,None,139.79653309999958,139.79653309999958,139.79653309999958,139.79653309999958,139.79653309999958,139.79653309999958,139.79653309999958,139.79653309999958,139.79653309999958,139.79653309999958,,006,P021,2025_May_08_1218,ConditionRich,2021.2.3,59.97008692042236,
112.0,112.75,22,0.75,Stimuli/P009/things_butterfly_05s.jpg,0,0,0.0,0,186,186,186,,,,,,,,,,,,,112.01475019999998,0.014750199999980396,None,140.04677919999995,140.04677919999995,140.04677919999995,140.04677919999995,140.04677919999995,140.04677919999995,140.04677919999995,140.04677919999995,140.04677919999995,140.04677919999995,,006,P021,2025_May_08_1218,ConditionRich,2021.2.3,59.97008692042236,
112.75,113.0,41,0.0,Stimuli/Blank.png,0,0,0.0,0,187,187,187,,,,,,,,,,,,,112.78097369999978,0.030973699999776727,None,140.79741419999937,140.79741419999937,140.79741419999937,140.79741419999937,140.79741419999937,140.79741419999937,140.79741419999937,140.79741419999937,140.79741419999937,140.79741419999937,,006,P021,2025_May_08_1218,ConditionRich,2021.2.3,59.97008692042236,
113.0,113.75,22,0.75,Stimuli/P009/things_butterfly_05s.jpg,0,0,0.0,0,188,188,188,,,,,,,,,,,,,113.01553090000016,0.015530900000157999,None,141.03095699999994,141.03095699999994,141.03095699999994,141.03095699999994,141.03095699999994,141.03095699999994,141.03095699999994,141.03095699999994,141.03095699999994,141.03095699999994,,006,P021,2025_May_08_1218,ConditionRich,2021.2.3,59.97008692042236,
113.75,114.0,41,0.0,Stimuli/Blank.png,0,0,0.0,0,189,189,189,,,,,,,,,,,,,113.74872349999987,-0.001276500000130909,None,141.76494209999964,141.76494209999964,141.76494209999964,141.76494209999964,141.76494209999964,141.76494209999964,141.76494209999964,141.76494209999964,141.76494209999964,141.76494209999964,,006,P021,2025_May_08_1218,ConditionRich,2021.2.3,59.97008692042236,
114.0,114.75,22,0.75,Stimuli/P009/things_butterfly_05s.jpg,0,0,0.0,0,190,190,190,,,,,,,,,,,,,114.00096880000001,0.0009688000000096508,None,142.03186199999982,142.03186199999982,142.03186199999982,142.03186199999982,142.03186199999982,142.03186199999982,142.03186199999982,142.03186199999982,142.03186199999982,142.03186199999982,,006,P021,2025_May_08_1218,ConditionRich,2021.2.3,59.97008692042236,
114.75,115.0,41,0.0,Stimuli/Blank.png,0,0,0.0,0,191,191,191,,,,,,,,,,,,,114.76603239999986,0.01603239999985817,None,142.78251009999985,142.78251009999985,142.78251009999985,142.78251009999985,142.78251009999985,142.78251009999985,142.78251009999985,142.78251009999985,142.78251009999985,142.78251009999985,,006,P021,2025_May_08_1218,ConditionRich,2021.2.3,59.97008692042236,
115.0,115.75,22,0.75,Stimuli/P009/things_butterfly_05s.jpg,0,0,0.0,0,192,192,192,,,,,,,,,,,,,115.00013219999983,0.00013219999982538866,None,143.03274939999937,143.03274939999937,143.03274939999937,143.03274939999937,143.03274939999937,143.03274939999937,143.03274939999937,143.03274939999937,143.03274939999937,143.03274939999937,,006,P021,2025_May_08_1218,ConditionRich,2021.2.3,59.97008692042236,
115.75,116.0,41,0.0,Stimuli/Blank.png,0,0,0.0,0,193,193,193,,,,,,,,,,,,,115.76978800000052,0.01978800000051706,None,143.8000763,143.8000763,143.8000763,143.8000763,143.8000763,143.8000763,143.8000763,143.8000763,143.8000763,143.8000763,,006,P021,2025_May_08_1218,ConditionRich,2021.2.3,59.97008692042236,
116.0,116.75,37,0.75,Stimuli/P009/things_pug_05s.jpg,0,0,0.0,0,194,194,194,,,,,,,,,,,,,116.01729539999997,0.01729539999996632,None,144.0336225000001,144.0336225000001,144.0336225000001,144.0336225000001,144.0336225000001,144.0336225000001,144.0336225000001,144.0336225000001,144.0336225000001,144.0336225000001,,006,P021,2025_May_08_1218,ConditionRich,2021.2.3,59.97008692042236,
116.75,117.0,41,0.0,Stimuli/Blank.png,0,0,0.0,0,195,195,195,,,,,,,,,,,,,116.75123609999991,0.001236099999914586,None,144.76757139999972,144.76757139999972,144.76757139999972,144.76757139999972,144.76757139999972,144.76757139999972,144.76757139999972,144.76757139999972,144.76757139999972,144.76757139999972,,006,P021,2025_May_08_1218,ConditionRich,2021.2.3,59.97008692042236,
117.0,117.75,37,0.75,Stimuli/P009/things_pug_05s.jpg,0,0,0.0,0,196,196,196,,,,,,,,,,,,,117.00139870000021,0.001398700000208919,None,145.01782249999997,145.01782249999997,145.01782249999997,145.01782249999997,145.01782249999997,145.01782249999997,145.01782249999997,145.01782249999997,145.01782249999997,145.01782249999997,,006,P021,2025_May_08_1218,ConditionRich,2021.2.3,59.97008692042236,
117.75,118.0,41,0.0,Stimuli/Blank.png,0,0,0.0,0,197,197,197,,,,,,,,,,,,,117.75483319999967,0.004833199999666249,None,145.78530619999947,145.78530619999947,145.78530619999947,145.78530619999947,145.78530619999947,145.78530619999947,145.78530619999947,145.78530619999947,145.78530619999947,145.78530619999947,,006,P021,2025_May_08_1218,ConditionRich,2021.2.3,59.97008692042236,
118.0,118.75,37,0.75,Stimuli/P009/things_pug_05s.jpg,0,0,0.0,0,198,198,198,,,,,,,,,,,,,118.01914130000023,0.01914130000022851,None,146.03539619999992,146.03539619999992,146.03539619999992,146.03539619999992,146.03539619999992,146.03539619999992,146.03539619999992,146.03539619999992,146.03539619999992,146.03539619999992,,006,P021,2025_May_08_1218,ConditionRich,2021.2.3,59.97008692042236,
118.75,119.0,41,0.0,Stimuli/Blank.png,0,0,0.0,0,199,199,199,,,,,,,,,,,,,118.75555700000041,0.005557000000408152,None,146.78605160000006,146.78605160000006,146.78605160000006,146.78605160000006,146.78605160000006,146.78605160000006,146.78605160000006,146.78605160000006,146.78605160000006,146.78605160000006,,006,P021,2025_May_08_1218,ConditionRich,2021.2.3,59.97008692042236,
119.0,119.75,37,0.75,Stimuli/P009/things_pug_05s.jpg,0,0,0.0,0,200,200,200,,,,,,,,,,,,,119.02050580000014,0.020505800000137242,None,147.05295079999996,147.05295079999996,147.05295079999996,147.05295079999996,147.05295079999996,147.05295079999996,147.05295079999996,147.05295079999996,147.05295079999996,147.05295079999996,,006,P021,2025_May_08_1218,ConditionRich,2021.2.3,59.97008692042236,
119.75,120.0,41,0.0,Stimuli/Blank.png,0,0,0.0,0,201,201,201,,,,,,,,,,,,,119.77048490000016,0.020484900000155903,None,147.78692219999994,147.78692219999994,147.78692219999994,147.78692219999994,147.78692219999994,147.78692219999994,147.78692219999994,147.78692219999994,147.78692219999994,147.78692219999994,,006,P021,2025_May_08_1218,ConditionRich,2021.2.3,59.97008692042236,
120.0,120.75,5,0.75,Stimuli/P009/sun_akqvdmuauoxeafrj.jpg,0,0,0.0,0,202,202,202,,,,,,,,,,,,,120.00451109999995,0.004511099999945145,None,148.03717719999986,148.03717719999986,148.03717719999986,148.03717719999986,148.03717719999986,148.03717719999986,148.03717719999986,148.03717719999986,148.03717719999986,148.03717719999986,,006,P021,2025_May_08_1218,ConditionRich,2021.2.3,59.97008692042236,
120.75,121.0,41,0.0,Stimuli/Blank.png,0,0,0.0,0,203,203,203,,,,,,,,,,,,,120.77138410000043,0.021384100000432227,None,148.78780920000008,148.78780920000008,148.78780920000008,148.78780920000008,148.78780920000008,148.78780920000008,148.78780920000008,148.78780920000008,148.78780920000008,148.78780920000008,,006,P021,2025_May_08_1218,ConditionRich,2021.2.3,59.97008692042236,
121.0,121.75,5,0.75,Stimuli/P009/sun_akqvdmuauoxeafrj.jpg,0,0,0.0,0,204,204,204,,,,,,,,,,,,,121.00536610000017,0.005366100000173901,None,149.03802629999973,149.03802629999973,149.03802629999973,149.03802629999973,149.03802629999973,149.03802629999973,149.03802629999973,149.03802629999973,149.03802629999973,149.03802629999973,,006,P021,2025_May_08_1218,ConditionRich,2021.2.3,59.97008692042236,
121.75,122.0,41,0.0,Stimuli/Blank.png,0,0,0.0,0,205,205,205,,,,,,,,,,,,,121.77284920000056,0.02284920000056445,None,149.78871699999945,149.78871699999945,149.78871699999945,149.78871699999945,149.78871699999945,149.78871699999945,149.78871699999945,149.78871699999945,149.78871699999945,149.78871699999945,,006,P021,2025_May_08_1218,ConditionRich,2021.2.3,59.97008692042236,
122.0,122.75,5,0.75,Stimuli/P009/sun_akqvdmuauoxeafrj.jpg,0,0,0.0,0,206,206,206,,,,,,,,,,,,,122.00565950000055,0.005659500000547268,None,150.0222229000001,150.0222229000001,150.0222229000001,150.0222229000001,150.0222229000001,150.0222229000001,150.0222229000001,150.0222229000001,150.0222229000001,150.0222229000001,,006,P021,2025_May_08_1218,ConditionRich,2021.2.3,59.97008692042236,
122.75,123.0,41,0.0,Stimuli/Blank.png,0,0,0.0,0,207,207,207,,,,,,,,,,,,,122.75631890000022,0.006318900000223948,None,150.7728905999993,150.7728905999993,150.7728905999993,150.7728905999993,150.7728905999993,150.7728905999993,150.7728905999993,150.7728905999993,150.7728905999993,150.7728905999993,,006,P021,2025_May_08_1218,ConditionRich,2021.2.3,59.97008692042236,
123.0,123.75,5,0.75,Stimuli/P009/sun_akqvdmuauoxeafrj.jpg,0,0,0.0,0,208,208,208,,,,,,,,,,,,,123.00668330000008,0.006683300000076997,None,151.03979769999933,151.03979769999933,151.03979769999933,151.03979769999933,151.03979769999933,151.03979769999933,151.03979769999933,151.03979769999933,151.03979769999933,151.03979769999933,,006,P021,2025_May_08_1218,ConditionRich,2021.2.3,59.97008692042236,
123.75,124.0,41,0.0,Stimuli/Blank.png,0,0,0.0,0,209,209,209,,,,,,,,,,,,,123.77497190000031,0.024971900000309688,None,151.79046159999962,151.79046159999962,151.79046159999962,151.79046159999962,151.79046159999962,151.79046159999962,151.79046159999962,151.79046159999962,151.79046159999962,151.79046159999962,,006,P021,2025_May_08_1218,ConditionRich,2021.2.3,59.97008692042236,
124.0,124.75,39,0.75,Stimuli/P009/things_tiara_05s.jpg,0,0,0.0,0,210,210,210,,,,,,,,,,,,,124.00820029999977,0.008200299999771232,None,152.02400669999952,152.02400669999952,152.02400669999952,152.02400669999952,152.02400669999952,152.02400669999952,152.02400669999952,152.02400669999952,152.02400669999952,152.02400669999952,,006,P021,2025_May_08_1218,ConditionRich,2021.2.3,59.97008692042236,
124.75,125.0,41,0.0,Stimuli/Blank.png,0,0,0.0,0,211,211,211,,,,,,,,,,,,,124.75905630000034,0.009056300000338524,None,152.77467499999966,152.77467499999966,152.77467499999966,152.77467499999966,152.77467499999966,152.77467499999966,152.77467499999966,152.77467499999966,152.77467499999966,152.77467499999966,,006,P021,2025_May_08_1218,ConditionRich,2021.2.3,59.97008692042236,
125.0,125.75,39,0.75,Stimuli/P009/things_tiara_05s.jpg,0,0,0.0,0,212,212,212,,,,,,,,,,,,,125.00895820000005,0.008958200000051875,None,153.0248904,153.0248904,153.0248904,153.0248904,153.0248904,153.0248904,153.0248904,153.0248904,153.0248904,153.0248904,,006,P021,2025_May_08_1218,ConditionRich,2021.2.3,59.97008692042236,
125.75,126.0,41,0.0,Stimuli/Blank.png,0,0,0.0,0,213,213,213,,,,,,,,,,,,,125.7604652,0.010465199999998731,None,153.77554999999938,153.77554999999938,153.77554999999938,153.77554999999938,153.77554999999938,153.77554999999938,153.77554999999938,153.77554999999938,153.77554999999938,153.77554999999938,,006,P021,2025_May_08_1218,ConditionRich,2021.2.3,59.97008692042236,
126.0,126.75,39,0.75,Stimuli/P009/things_tiara_05s.jpg,0,0,0.0,0,214,214,214,,,,,,,,,,,,,126.0102536000004,0.010253600000396546,None,154.04247439999926,154.04247439999926,154.04247439999926,154.04247439999926,154.04247439999926,154.04247439999926,154.04247439999926,154.04247439999926,154.04247439999926,154.04247439999926,,006,P021,2025_May_08_1218,ConditionRich,2021.2.3,59.97008692042236,
126.75,127.0,41,0.0,Stimuli/Blank.png,0,0,0.0,0,215,215,215,,,,,,,,,,,,,126.77663910000047,0.026639100000465987,None,154.79311789999974,154.79311789999974,154.79311789999974,154.79311789999974,154.79311789999974,154.79311789999974,154.79311789999974,154.79311789999974,154.79311789999974,154.79311789999974,,006,P021,2025_May_08_1218,ConditionRich,2021.2.3,59.97008692042236,
127.0,127.75,39,0.75,Stimuli/P009/things_tiara_05s.jpg,0,0,0.0,0,216,216,216,,,,,,,,,,,,,127.01088619999973,0.010886199999731616,None,155.04337039999973,155.04337039999973,155.04337039999973,155.04337039999973,155.04337039999973,155.04337039999973,155.04337039999973,155.04337039999973,155.04337039999973,155.04337039999973,,006,P021,2025_May_08_1218,ConditionRich,2021.2.3,59.97008692042236,
127.75,128.0,41,0.0,Stimuli/Blank.png,0,0,0.0,0,217,217,217,,,,,,,,,,,,,127.77953200000047,0.02953200000047218,None,155.81068959999993,155.81068959999993,155.81068959999993,155.81068959999993,155.81068959999993,155.81068959999993,155.81068959999993,155.81068959999993,155.81068959999993,155.81068959999993,,006,P021,2025_May_08_1218,ConditionRich,2021.2.3,59.97008692042236,
128.0,128.75,23,0.75,Stimuli/P009/things_charger_05s.jpg,0,0,0.0,0,218,218,218,,,,,,,,,,,,,128.02979159999995,0.029791599999953178,None,156.0609048999995,156.0609048999995,156.0609048999995,156.0609048999995,156.0609048999995,156.0609048999995,156.0609048999995,156.0609048999995,156.0609048999995,156.0609048999995,,006,P021,2025_May_08_1218,ConditionRich,2021.2.3,59.97008692042236,
128.75,129.0,41,0.0,Stimuli/Blank.png,0,0,0.0,0,219,219,219,,,,,,,,,,,,,128.77922070000022,0.029220700000223587,None,156.79489589999957,156.79489589999957,156.79489589999957,156.79489589999957,156.79489589999957,156.79489589999957,156.79489589999957,156.79489589999957,156.79489589999957,156.79489589999957,,006,P021,2025_May_08_1218,ConditionRich,2021.2.3,59.97008692042236,
129.0,129.75,23,0.75,Stimuli/P009/things_charger_05s.jpg,0,0,0.0,0,220,220,220,,,,,,,,,,,,,129.01437150000038,0.014371500000379456,None,157.04511159999947,157.04511159999947,157.04511159999947,157.04511159999947,157.04511159999947,157.04511159999947,157.04511159999947,157.04511159999947,157.04511159999947,157.04511159999947,,006,P021,2025_May_08_1218,ConditionRich,2021.2.3,59.97008692042236,
129.75,130.0,41,0.0,Stimuli/Blank.png,0,0,0.0,0,221,221,221,,,,,,,,,,,,,129.7799531999999,0.029953199999908975,None,157.79578419999962,157.79578419999962,157.79578419999962,157.79578419999962,157.79578419999962,157.79578419999962,157.79578419999962,157.79578419999962,157.79578419999962,157.79578419999962,,006,P021,2025_May_08_1218,ConditionRich,2021.2.3,59.97008692042236,
130.0,130.75,23,0.75,Stimuli/P009/things_charger_05s.jpg,0,0,0.0,0,222,222,222,,,,,,,,,,,,,130.01488659999995,0.014886599999954342,None,158.04600019999998,158.04600019999998,158.04600019999998,158.04600019999998,158.04600019999998,158.04600019999998,158.04600019999998,158.04600019999998,158.04600019999998,158.04600019999998,,006,P021,2025_May_08_1218,ConditionRich,2021.2.3,59.97008692042236,
130.75,131.0,41,0.0,Stimuli/Blank.png,0,0,0.0,0,223,223,223,,,,,,,,,,,,,130.78080940000018,0.030809400000180176,None,158.79666019999968,158.79666019999968,158.79666019999968,158.79666019999968,158.79666019999968,158.79666019999968,158.79666019999968,158.79666019999968,158.79666019999968,158.79666019999968,,006,P021,2025_May_08_1218,ConditionRich,2021.2.3,59.97008692042236,
131.0,131.75,23,0.75,Stimuli/P009/things_charger_05s.jpg,0,0,0.0,0,224,224,224,,,,,,,,,,,,,131.01428959999976,0.01428959999975632,None,159.0468695999998,159.0468695999998,159.0468695999998,159.0468695999998,159.0468695999998,159.0468695999998,159.0468695999998,159.0468695999998,159.0468695999998,159.0468695999998,,006,P021,2025_May_08_1218,ConditionRich,2021.2.3,59.97008692042236,
131.75,132.0,41,0.0,Stimuli/Blank.png,0,0,0.0,0,225,225,225,,,,,,,,,,,,,131.78245549999974,0.03245549999974173,None,159.79755440000008,159.79755440000008,159.79755440000008,159.79755440000008,159.79755440000008,159.79755440000008,159.79755440000008,159.79755440000008,159.79755440000008,159.79755440000008,,006,P021,2025_May_08_1218,ConditionRich,2021.2.3,59.97008692042236,
132.0,132.75,17,0.75,Stimuli/P009/sun_brkrfjpyfglmigkk.jpg,0,0,0.0,0,226,226,226,,,,,,,,,,,,,131.99834790000023,-0.0016520999997737817,None,160.01438979999966,160.01438979999966,160.01438979999966,160.01438979999966,160.01438979999966,160.01438979999966,160.01438979999966,160.01438979999966,160.01438979999966,160.01438979999966,,006,P021,2025_May_08_1218,ConditionRich,2021.2.3,59.97008692042236,
132.75,133.0,41,0.0,Stimuli/Blank.png,0,0,0.0,0,227,227,227,,,,,,,,,,,,,132.75060010000016,0.0006001000001560897,None,160.78175959999953,160.78175959999953,160.78175959999953,160.78175959999953,160.78175959999953,160.78175959999953,160.78175959999953,160.78175959999953,160.78175959999953,160.78175959999953,,006,P021,2025_May_08_1218,ConditionRich,2021.2.3,59.97008692042236,
133.0,133.75,17,0.75,Stimuli/P009/sun_brkrfjpyfglmigkk.jpg,0,0,0.0,0,228,228,228,,,,,,,,,,,,,133.01595760000055,0.015957600000547245,None,161.0319604999995,161.0319604999995,161.0319604999995,161.0319604999995,161.0319604999995,161.0319604999995,161.0319604999995,161.0319604999995,161.0319604999995,161.0319604999995,,006,P021,2025_May_08_1218,ConditionRich,2021.2.3,59.97008692042236,
133.75,134.0,41,0.0,Stimuli/Blank.png,0,0,0.0,0,229,229,229,,,,,,,,,,,,,133.7499783000003,-2.1699999706470408e-05,None,161.76595029999953,161.76595029999953,161.76595029999953,161.76595029999953,161.76595029999953,161.76595029999953,161.76595029999953,161.76595029999953,161.76595029999953,161.76595029999953,,006,P021,2025_May_08_1218,ConditionRich,2021.2.3,59.97008692042236,
134.0,134.75,17,0.75,Stimuli/P009/sun_brkrfjpyfglmigkk.jpg,0,0,0.0,0,230,230,230,,,,,,,,,,,,,134.00066520000018,0.0006652000001849956,None,162.03284259999964,162.03284259999964,162.03284259999964,162.03284259999964,162.03284259999964,162.03284259999964,162.03284259999964,162.03284259999964,162.03284259999964,162.03284259999964,,006,P021,2025_May_08_1218,ConditionRich,2021.2.3,59.97008692042236,
134.75,135.0,41,0.0,Stimuli/Blank.png,0,0,0.0,0,231,231,231,,,,,,,,,,,,,134.76969009999993,0.01969009999993432,None,162.80020149999928,162.80020149999928,162.80020149999928,162.80020149999928,162.80020149999928,162.80020149999928,162.80020149999928,162.80020149999928,162.80020149999928,162.80020149999928,,006,P021,2025_May_08_1218,ConditionRich,2021.2.3,59.97008692042236,
135.0,135.75,17,0.75,Stimuli/P009/sun_brkrfjpyfglmigkk.jpg,0,0,0.0,0,232,232,232,,,,,,,,,,,,,135.01883400000042,0.018834000000424567,None,163.05043380000006,163.05043380000006,163.05043380000006,163.05043380000006,163.05043380000006,163.05043380000006,163.05043380000006,163.05043380000006,163.05043380000006,163.05043380000006,,006,P021,2025_May_08_1218,ConditionRich,2021.2.3,59.97008692042236,
135.75,136.0,41,0.0,Stimuli/Blank.png,0,0,0.0,0,233,233,233,,,,,,,,,,,,,135.77094800000032,0.020948000000316824,None,163.8010807999999,163.8010807999999,163.8010807999999,163.8010807999999,163.8010807999999,163.8010807999999,163.8010807999999,163.8010807999999,163.8010807999999,163.8010807999999,,006,P021,2025_May_08_1218,ConditionRich,2021.2.3,59.97008692042236,
136.0,136.75,8,0.75,Stimuli/P009/sun_batcnoizlkeiqdtx.jpg,0,0,0.0,0,234,234,234,,,,,,,,,,,,,136.01869420000003,0.018694200000027195,None,164.03475939999953,164.03475939999953,164.03475939999953,164.03475939999953,164.03475939999953,164.03475939999953,164.03475939999953,164.03475939999953,164.03475939999953,164.03475939999953,,006,P021,2025_May_08_1218,ConditionRich,2021.2.3,59.97008692042236,
136.75,137.0,41,0.0,Stimuli/Blank.png,0,0,0.0,0,235,235,235,,,,,,,,,,,,,136.75279240000054,0.0027924000005441485,None,164.7686266999999,164.7686266999999,164.7686266999999,164.7686266999999,164.7686266999999,164.7686266999999,164.7686266999999,164.7686266999999,164.7686266999999,164.7686266999999,,006,P021,2025_May_08_1218,ConditionRich,2021.2.3,59.97008692042236,
137.0,137.75,8,0.75,Stimuli/P009/sun_batcnoizlkeiqdtx.jpg,0,0,0.0,0,236,236,236,,,,,,,,,,,,,137.00237360000028,0.0023736000002827495,None,165.01880999999958,165.01880999999958,165.01880999999958,165.01880999999958,165.01880999999958,165.01880999999958,165.01880999999958,165.01880999999958,165.01880999999958,165.01880999999958,,006,P021,2025_May_08_1218,ConditionRich,2021.2.3,59.97008692042236,
137.75,138.0,41,0.0,Stimuli/Blank.png,0,0,0.0,0,237,237,237,,,,,,,,,,,,,137.75489730000027,0.004897300000266114,None,165.7862427,165.7862427,165.7862427,165.7862427,165.7862427,165.7862427,165.7862427,165.7862427,165.7862427,165.7862427,,006,P021,2025_May_08_1218,ConditionRich,2021.2.3,59.97008692042236,
138.0,138.75,8,0.75,Stimuli/P009/sun_batcnoizlkeiqdtx.jpg,1,0,0.75,0,238,238,238,,,,,,,,,,,,,138.0199702,0.019970199999988836,None,166.03637769999932,166.03637769999932,166.03637769999932,166.03637769999932,166.03637769999932,166.03637769999932,166.03637769999932,None,166.03637769999932,166.03637769999932,,006,P021,2025_May_08_1218,ConditionRich,2021.2.3,59.97008692042236,
138.75,139.0,41,0.0,Stimuli/Blank.png,0,0,0.0,0,239,239,239,,,,,,,,,,,,,138.75378199999977,0.0037819999997736886,None,166.77036169999974,166.77036169999974,166.77036169999974,166.77036169999974,166.77036169999974,166.77036169999974,166.77036169999974,166.77036169999974,166.77036169999974,166.77036169999974,,006,P021,2025_May_08_1218,ConditionRich,2021.2.3,59.97008692042236,
139.0,139.75,8,0.75,Stimuli/P009/sun_batcnoizlkeiqdtx.jpg,0,0,0.0,0,240,240,240,,,,,,,,,,,,,139.00494020000042,0.004940200000419281,None,167.03726839999945,167.03726839999945,167.03726839999945,167.03726839999945,167.03726839999945,167.03726839999945,167.03726839999945,167.03726839999945,167.03726839999945,167.03726839999945,,006,P021,2025_May_08_1218,ConditionRich,2021.2.3,59.97008692042236,
139.75,140.0,41,0.0,Stimuli/Blank.png,0,0,0.0,0,241,241,241,,,,,,,,,,,,,139.7721913000005,0.02219130000048608,None,167.78792599999997,167.78792599999997,167.78792599999997,167.78792599999997,167.78792599999997,167.78792599999997,167.78792599999997,167.78792599999997,167.78792599999997,167.78792599999997,,006,P021,2025_May_08_1218,ConditionRich,2021.2.3,59.97008692042236,
140.0,140.75,11,0.75,Stimuli/P009/sun_bfyvfqiimvdaxlqn.jpg,0,0,0.0,0,242,242,242,,,,,,,,,,,,,140.00502860000051,0.005028600000514416,None,168.02146600000015,168.02146600000015,168.02146600000015,168.02146600000015,168.02146600000015,168.02146600000015,168.02146600000015,168.02146600000015,168.02146600000015,168.02146600000015,,006,P021,2025_May_08_1218,ConditionRich,2021.2.3,59.97008692042236,
140.75,141.0,41,0.0,Stimuli/Blank.png,0,0,0.0,0,243,243,243,,,,,,,,,,,,,140.7556838999999,0.005683899999894493,None,168.7721314999999,168.7721314999999,168.7721314999999,168.7721314999999,168.7721314999999,168.7721314999999,168.7721314999999,168.7721314999999,168.7721314999999,168.7721314999999,,006,P021,2025_May_08_1218,ConditionRich,2021.2.3,59.97008692042236,
141.0,141.75,11,0.75,Stimuli/P009/sun_bfyvfqiimvdaxlqn.jpg,0,0,0.0,0,244,244,244,,,,,,,,,,,,,141.00645739999982,0.006457399999817426,None,169.03905750000013,169.03905750000013,169.03905750000013,169.03905750000013,169.03905750000013,169.03905750000013,169.03905750000013,169.03905750000013,169.03905750000013,169.03905750000013,,006,P021,2025_May_08_1218,ConditionRich,2021.2.3,59.97008692042236,
141.75,142.0,41,0.0,Stimuli/Blank.png,0,0,0.0,0,245,245,245,,,,,,,,,,,,,141.77398249999987,0.023982499999874562,None,169.78969749999942,169.78969749999942,169.78969749999942,169.78969749999942,169.78969749999942,169.78969749999942,169.78969749999942,169.78969749999942,169.78969749999942,169.78969749999942,,006,P021,2025_May_08_1218,ConditionRich,2021.2.3,59.97008692042236,
142.0,142.75,11,0.75,Stimuli/P009/sun_bfyvfqiimvdaxlqn.jpg,0,0,0.0,0,246,246,246,,,,,,,,,,,,,142.00716770000054,0.00716770000053657,None,170.03992709999966,170.03992709999966,170.03992709999966,170.03992709999966,170.03992709999966,170.03992709999966,170.03992709999966,170.03992709999966,170.03992709999966,170.03992709999966,,006,P021,2025_May_08_1218,ConditionRich,2021.2.3,59.97008692042236,
142.75,143.0,41,0.0,Stimuli/Blank.png,0,0,0.0,0,247,247,247,,,,,,,,,,,,,142.77403460000005,0.024034600000049977,None,170.79058059999988,170.79058059999988,170.79058059999988,170.79058059999988,170.79058059999988,170.79058059999988,170.79058059999988,170.79058059999988,170.79058059999988,170.79058059999988,,006,P021,2025_May_08_1218,ConditionRich,2021.2.3,59.97008692042236,
143.0,143.75,11,0.75,Stimuli/P009/sun_bfyvfqiimvdaxlqn.jpg,0,0,0.0,0,248,248,248,,,,,,,,,,,,,143.00765580000007,0.007655800000065938,None,171.04082130000006,171.04082130000006,171.04082130000006,171.04082130000006,171.04082130000006,171.04082130000006,171.04082130000006,171.04082130000006,171.04082130000006,171.04082130000006,,006,P021,2025_May_08_1218,ConditionRich,2021.2.3,59.97008692042236,
143.75,144.0,41,0.0,Stimuli/Blank.png,0,0,0.0,0,249,249,249,,,,,,,,,,,,,143.77545230000032,0.025452300000324612,None,171.79147029999967,171.79147029999967,171.79147029999967,171.79147029999967,171.79147029999967,171.79147029999967,171.79147029999967,171.79147029999967,171.79147029999967,171.79147029999967,,006,P021,2025_May_08_1218,ConditionRich,2021.2.3,59.97008692042236,
144.0,144.75,1,0.75,Stimuli/P009/sun_abqdlumenyzawlme.jpg,0,0,0.0,0,250,250,250,,,,,,,,,,,,,144.0084526999999,0.008452699999907054,None,172.0250003000001,172.0250003000001,172.0250003000001,172.0250003000001,172.0250003000001,172.0250003000001,172.0250003000001,172.0250003000001,172.0250003000001,172.0250003000001,,006,P021,2025_May_08_1218,ConditionRich,2021.2.3,59.97008692042236,
144.75,145.0,41,0.0,Stimuli/Blank.png,0,0,0.0,0,251,251,251,,,,,,,,,,,,,144.76018159999967,0.010181599999668833,None,172.79238339999938,172.79238339999938,172.79238339999938,172.79238339999938,172.79238339999938,172.79238339999938,172.79238339999938,172.79238339999938,172.79238339999938,172.79238339999938,,006,P021,2025_May_08_1218,ConditionRich,2021.2.3,59.97008692042236,
145.0,145.75,1,0.75,Stimuli/P009/sun_abqdlumenyzawlme.jpg,0,0,0.0,0,252,252,252,,,,,,,,,,,,,145.02611510000042,0.026115100000424718,None,173.04257210000014,173.04257210000014,173.04257210000014,173.04257210000014,173.04257210000014,173.04257210000014,173.04257210000014,173.04257210000014,173.04257210000014,173.04257210000014,,006,P021,2025_May_08_1218,ConditionRich,2021.2.3,59.97008692042236,
145.75,146.0,41,0.0,Stimuli/Blank.png,0,0,0.0,0,253,253,253,,,,,,,,,,,,,145.76088619999973,0.010886199999731616,None,173.77653659999942,173.77653659999942,173.77653659999942,173.77653659999942,173.77653659999942,173.77653659999942,173.77653659999942,173.77653659999942,173.77653659999942,173.77653659999942,,006,P021,2025_May_08_1218,ConditionRich,2021.2.3,59.97008692042236,
146.0,146.75,1,0.75,Stimuli/P009/sun_abqdlumenyzawlme.jpg,0,0,0.0,0,254,254,254,,,,,,,,,,,,,146.01082850000057,0.010828500000570784,None,174.02677109999968,174.02677109999968,174.02677109999968,174.02677109999968,174.02677109999968,174.02677109999968,174.02677109999968,174.02677109999968,174.02677109999968,174.02677109999968,,006,P021,2025_May_08_1218,ConditionRich,2021.2.3,59.97008692042236,
146.75,147.0,41,0.0,Stimuli/Blank.png,0,0,0.0,0,255,255,255,,,,,,,,,,,,,146.76141069999994,0.011410699999942153,None,174.77743759999976,174.77743759999976,174.77743759999976,174.77743759999976,174.77743759999976,174.77743759999976,174.77743759999976,174.77743759999976,174.77743759999976,174.77743759999976,,006,P021,2025_May_08_1218,ConditionRich,2021.2.3,59.97008692042236,
147.0,147.75,1,0.75,Stimuli/P009/sun_abqdlumenyzawlme.jpg,0,0,0.0,0,256,256,256,,,,,,,,,,,,,147.01192530000026,0.011925300000257266,None,175.04437159999998,175.04437159999998,175.04437159999998,175.04437159999998,175.04437159999998,175.04437159999998,175.04437159999998,175.04437159999998,175.04437159999998,175.04437159999998,,006,P021,2025_May_08_1218,ConditionRich,2021.2.3,59.97008692042236,
147.75,148.0,41,0.0,Stimuli/Blank.png,0,0,0.0,0,257,257,257,,,,,,,,,,,,,147.77908410000055,0.029084100000545732,None,175.79504879999968,175.79504879999968,175.79504879999968,175.79504879999968,175.79504879999968,175.79504879999968,175.79504879999968,175.79504879999968,175.79504879999968,175.79504879999968,,006,P021,2025_May_08_1218,ConditionRich,2021.2.3,59.97008692042236,
148.0,148.75,36,0.75,Stimuli/P009/things_pelican_05s.jpg,0,0,0.0,0,258,258,258,,,,,,,,,,,,,148.01225630000044,0.012256300000444753,None,176.0451908999994,176.0451908999994,176.0451908999994,176.0451908999994,176.0451908999994,176.0451908999994,176.0451908999994,176.0451908999994,176.0451908999994,176.0451908999994,,006,P021,2025_May_08_1218,ConditionRich,2021.2.3,59.97008692042236,
148.75,149.0,41,0.0,Stimuli/Blank.png,0,0,0.0,0,259,259,259,,,,,,,,,,,,,148.78061359999992,0.03061359999992419,None,176.79589399999986,176.79589399999986,176.79589399999986,176.79589399999986,176.79589399999986,176.79589399999986,176.79589399999986,176.79589399999986,176.79589399999986,176.79589399999986,,006,P021,2025_May_08_1218,ConditionRich,2021.2.3,59.97008692042236,
149.0,149.75,36,0.75,Stimuli/P009/things_pelican_05s.jpg,0,0,0.0,0,260,260,260,,,,,,,,,,,,,149.01485109999976,0.014851099999759754,None,177.0461196999995,177.0461196999995,177.0461196999995,177.0461196999995,177.0461196999995,177.0461196999995,177.0461196999995,177.0461196999995,177.0461196999995,177.0461196999995,,006,P021,2025_May_08_1218,ConditionRich,2021.2.3,59.97008692042236,
149.75,150.0,41,0.0,Stimuli/Blank.png,0,0,0.0,0,261,261,261,,,,,,,,,,,,,149.78077459999986,0.030774599999858765,None,177.79677229999925,177.79677229999925,177.79677229999925,177.79677229999925,177.79677229999925,177.79677229999925,177.79677229999925,177.79677229999925,177.79677229999925,177.79677229999925,,006,P021,2025_May_08_1218,ConditionRich,2021.2.3,59.97008692042236,
150.0,150.75,36,0.75,Stimuli/P009/things_pelican_05s.jpg,0,0,0.0,0,262,262,262,,,,,,,,,,,,,150.01540310000019,0.015403100000185077,None,178.04699559999972,178.04699559999972,178.04699559999972,178.04699559999972,178.04699559999972,178.04699559999972,178.04699559999972,178.04699559999972,178.04699559999972,178.04699559999972,,006,P021,2025_May_08_1218,ConditionRich,2021.2.3,59.97008692042236,
