eventStartTime,eventEndTime,eventCond,imSize,imFile,responseEvent,fixRespStart,fixRespEnd,Events.thisRepN,Events.thisTrialN,Events.thisN,Events.thisIndex,Instructions.started,Instructions.stopped,participantReadyResponse.keys,participantReadyResponse.rt,participantReadyResponse.started,participantReadyResponse.stopped,startWaitforTrigger,triggerResponse.keys,triggerResponse.rt,triggerResponse.started,triggerResponse.stopped,globalTimer,actualStartTime,startTimingDiff,participantResponse.keys,participantResponse.started,participantResponse.stopped,image.started,image.stopped,fixationOutside.started,fixationOutside.stopped,fixationResponse.started,fixationResponse.stopped,fixationInside.started,fixationInside.stopped,participantResponse.rt,session,participant,date,expName,psychopyVersion,frameRate,
,,,,,,,,,,,,15.90608659999998,None,1,2.5763106000003972,15.90608659999998,None,,,,,,,,,,,,,,,,,,,,,003,P021,2025_May_08_1150,ConditionRich,2021.2.3,59.959083921175505,
,,,,,,,,,,,,,,,,,,18.49224790000062,5,13.974330199999713,18.5049012999998,None,,,,,,,,,,,,,,,,003,P021,2025_May_08_1150,ConditionRich,2021.2.3,59.959083921175505,
0.0,4.0,0,0.0,Stimuli/Blank.png,0,0,0.0,0,0,0,0,,,,,,,,,,,,32.48677850000058,0.0501336999996056,0.0501336999996056,None,32.55064519999996,None,32.55064519999996,None,32.55064519999996,None,32.55064519999996,32.55064519999996,32.55064519999996,None,,003,P021,2025_May_08_1150,ConditionRich,2021.2.3,59.959083921175505,
4.0,4.75,1,0.75,Stimuli/P009/sun_abqdlumenyzawlme.jpg,0,0,0.0,0,1,1,1,,,,,,,,,,,,,4.005816599999889,0.005816599999889149,None,36.52112829999987,36.52112829999987,36.52112829999987,36.52112829999987,36.52112829999987,36.52112829999987,36.52112829999987,36.52112829999987,36.52112829999987,36.52112829999987,,003,P021,2025_May_08_1150,ConditionRich,2021.2.3,59.959083921175505,
4.75,5.0,41,0.0,Stimuli/Blank.png,0,0,0.0,0,2,2,2,,,,,,,,,,,,,4.771213899999566,0.02121389999956591,None,37.2717717000005,37.2717717000005,37.2717717000005,37.2717717000005,37.2717717000005,37.2717717000005,37.2717717000005,37.2717717000005,37.2717717000005,37.2717717000005,,003,P021,2025_May_08_1150,ConditionRich,2021.2.3,59.959083921175505,
5.0,5.75,1,0.75,Stimuli/P009/sun_abqdlumenyzawlme.jpg,0,0,0.0,0,3,3,3,,,,,,,,,,,,,5.004271400000107,0.004271400000106951,None,37.50502800000049,37.50502800000049,37.50502800000049,37.50502800000049,37.50502800000049,37.50502800000049,37.50502800000049,37.50502800000049,37.50502800000049,37.50502800000049,,003,P021,2025_May_08_1150,ConditionRich,2021.2.3,59.959083921175505,
5.75,6.0,41,0.0,Stimuli/Blank.png,0,0,0.0,0,4,4,4,,,,,,,,,,,,,5.755118999999468,0.005118999999467633,None,38.255691899999874,38.255691899999874,38.255691899999874,38.255691899999874,38.255691899999874,38.255691899999874,38.255691899999874,38.255691899999874,38.255691899999874,38.255691899999874,,003,P021,2025_May_08_1150,ConditionRich,2021.2.3,59.959083921175505,
6.0,6.75,1,0.75,Stimuli/P009/sun_abqdlumenyzawlme.jpg,0,0,0.0,0,5,5,5,,,,,,,,,,,,,6.004588899999362,0.004588899999362184,None,38.505914600000324,38.505914600000324,38.505914600000324,38.505914600000324,38.505914600000324,38.505914600000324,38.505914600000324,38.505914600000324,38.505914600000324,38.505914600000324,,003,P021,2025_May_08_1150,ConditionRich,2021.2.3,59.959083921175505,
6.75,7.0,41,0.0,Stimuli/Blank.png,0,0,0.0,0,6,6,6,,,,,,,,,,,,,6.7552967000001445,0.005296700000144483,None,39.2565738000003,39.2565738000003,39.2565738000003,39.2565738000003,39.2565738000003,39.2565738000003,39.2565738000003,39.2565738000003,39.2565738000003,39.2565738000003,,003,P021,2025_May_08_1150,ConditionRich,2021.2.3,59.959083921175505,
7.0,7.75,1,0.75,Stimuli/P009/sun_abqdlumenyzawlme.jpg,0,0,0.0,0,7,7,7,,,,,,,,,,,,,7.006373899999744,0.006373899999744026,None,39.52349670000058,39.52349670000058,39.52349670000058,39.52349670000058,39.52349670000058,39.52349670000058,39.52349670000058,39.52349670000058,39.52349670000058,39.52349670000058,,003,P021,2025_May_08_1150,ConditionRich,2021.2.3,59.959083921175505,
7.75,8.0,41,0.0,Stimuli/Blank.png,0,0,0.0,0,8,8,8,,,,,,,,,,,,,7.773386699999719,0.023386699999718985,None,40.274144300000444,40.274144300000444,40.274144300000444,40.274144300000444,40.274144300000444,40.274144300000444,40.274144300000444,40.274144300000444,40.274144300000444,40.274144300000444,,003,P021,2025_May_08_1150,ConditionRich,2021.2.3,59.959083921175505,
8.0,8.75,9,0.75,Stimuli/P009/sun_bdjkvwqqqycuixtc.jpg,0,0,0.0,0,9,9,9,,,,,,,,,,,,,8.009132299999692,0.009132299999691895,None,40.524399599999924,40.524399599999924,40.524399599999924,40.524399599999924,40.524399599999924,40.524399599999924,40.524399599999924,40.524399599999924,40.524399599999924,40.524399599999924,,003,P021,2025_May_08_1150,ConditionRich,2021.2.3,59.959083921175505,
8.75,9.0,41,0.0,Stimuli/Blank.png,0,0,0.0,0,10,10,10,,,,,,,,,,,,,8.774260799999865,0.024260799999865412,None,41.275028799999745,41.275028799999745,41.275028799999745,41.275028799999745,41.275028799999745,41.275028799999745,41.275028799999745,41.275028799999745,41.275028799999745,41.275028799999745,,003,P021,2025_May_08_1150,ConditionRich,2021.2.3,59.959083921175505,
9.0,9.75,9,0.75,Stimuli/P009/sun_bdjkvwqqqycuixtc.jpg,0,0,0.0,0,11,11,11,,,,,,,,,,,,,9.010013199999776,0.01001319999977568,None,41.52526570000009,41.52526570000009,41.52526570000009,41.52526570000009,41.52526570000009,41.52526570000009,41.52526570000009,41.52526570000009,41.52526570000009,41.52526570000009,,003,P021,2025_May_08_1150,ConditionRich,2021.2.3,59.959083921175505,
9.75,10.0,41,0.0,Stimuli/Blank.png,0,0,0.0,0,12,12,12,,,,,,,,,,,,,9.775620499999604,0.025620499999604363,None,42.275921700000254,42.275921700000254,42.275921700000254,42.275921700000254,42.275921700000254,42.275921700000254,42.275921700000254,42.275921700000254,42.275921700000254,42.275921700000254,,003,P021,2025_May_08_1150,ConditionRich,2021.2.3,59.959083921175505,
10.0,10.75,9,0.75,Stimuli/P009/sun_bdjkvwqqqycuixtc.jpg,0,0,0.0,0,13,13,13,,,,,,,,,,,,,10.009261899999728,0.009261899999728485,None,42.509445000000596,42.509445000000596,42.509445000000596,42.509445000000596,42.509445000000596,42.509445000000596,42.509445000000596,42.509445000000596,42.509445000000596,42.509445000000596,,003,P021,2025_May_08_1150,ConditionRich,2021.2.3,59.959083921175505,
10.75,11.0,41,0.0,Stimuli/Blank.png,0,0,0.0,0,14,14,14,,,,,,,,,,,,,10.759360899999592,0.00936089999959222,None,43.260130100000424,43.260130100000424,43.260130100000424,43.260130100000424,43.260130100000424,43.260130100000424,43.260130100000424,43.260130100000424,43.260130100000424,43.260130100000424,,003,P021,2025_May_08_1150,ConditionRich,2021.2.3,59.959083921175505,
11.0,11.75,9,0.75,Stimuli/P009/sun_bdjkvwqqqycuixtc.jpg,0,0,0.0,0,15,15,15,,,,,,,,,,,,,11.00935010000012,0.00935010000011971,None,43.51033270000062,43.51033270000062,43.51033270000062,43.51033270000062,43.51033270000062,43.51033270000062,43.51033270000062,43.51033270000062,43.51033270000062,43.51033270000062,,003,P021,2025_May_08_1150,ConditionRich,2021.2.3,59.959083921175505,
11.75,12.0,41,0.0,Stimuli/Blank.png,0,0,0.0,0,16,16,16,,,,,,,,,,,,,11.759842699999353,0.0098426999993535,None,44.26101519999975,44.26101519999975,44.26101519999975,44.26101519999975,44.26101519999975,44.26101519999975,44.26101519999975,44.26101519999975,44.26101519999975,44.26101519999975,,003,P021,2025_May_08_1150,ConditionRich,2021.2.3,59.959083921175505,
12.0,12.75,28,0.75,Stimuli/P009/things_face_05s.jpg,0,0,0.0,0,17,17,17,,,,,,,,,,,,,12.00998410000011,0.00998410000011063,None,44.5112380999999,44.5112380999999,44.5112380999999,44.5112380999999,44.5112380999999,44.5112380999999,44.5112380999999,44.5112380999999,44.5112380999999,44.5112380999999,,003,P021,2025_May_08_1150,ConditionRich,2021.2.3,59.959083921175505,
12.75,13.0,41,0.0,Stimuli/Blank.png,0,0,0.0,0,18,18,18,,,,,,,,,,,,,12.76061269999991,0.010612699999910546,None,45.26187670000036,45.26187670000036,45.26187670000036,45.26187670000036,45.26187670000036,45.26187670000036,45.26187670000036,45.26187670000036,45.26187670000036,45.26187670000036,,003,P021,2025_May_08_1150,ConditionRich,2021.2.3,59.959083921175505,
13.0,13.75,28,0.75,Stimuli/P009/things_face_05s.jpg,0,0,0.0,0,19,19,19,,,,,,,,,,,,,13.011643499999991,0.011643499999991036,None,45.528782299999875,45.528782299999875,45.528782299999875,45.528782299999875,45.528782299999875,45.528782299999875,45.528782299999875,45.528782299999875,45.528782299999875,45.528782299999875,,003,P021,2025_May_08_1150,ConditionRich,2021.2.3,59.959083921175505,
13.75,14.0,41,0.0,Stimuli/Blank.png,0,0,0.0,0,20,20,20,,,,,,,,,,,,,13.778424000000086,0.02842400000008638,None,46.2793743000002,46.2793743000002,46.2793743000002,46.2793743000002,46.2793743000002,46.2793743000002,46.2793743000002,46.2793743000002,46.2793743000002,46.2793743000002,,003,P021,2025_May_08_1150,ConditionRich,2021.2.3,59.959083921175505,
14.0,14.75,28,0.75,Stimuli/P009/things_face_05s.jpg,0,0,0.0,0,21,21,21,,,,,,,,,,,,,14.011654399999316,0.011654399999315501,None,46.529678500000045,46.529678500000045,46.529678500000045,46.529678500000045,46.529678500000045,46.529678500000045,46.529678500000045,46.529678500000045,46.529678500000045,46.529678500000045,,003,P021,2025_May_08_1150,ConditionRich,2021.2.3,59.959083921175505,
14.75,15.0,41,0.0,Stimuli/Blank.png,0,0,0.0,0,22,22,22,,,,,,,,,,,,,14.779046799999378,0.02904679999937798,None,47.28033930000038,47.28033930000038,47.28033930000038,47.28033930000038,47.28033930000038,47.28033930000038,47.28033930000038,47.28033930000038,47.28033930000038,47.28033930000038,,003,P021,2025_May_08_1150,ConditionRich,2021.2.3,59.959083921175505,
15.0,15.75,28,0.75,Stimuli/P009/things_face_05s.jpg,0,0,0.0,0,23,23,23,,,,,,,,,,,,,15.01318850000007,0.013188500000069325,None,47.53055289999975,47.53055289999975,47.53055289999975,47.53055289999975,47.53055289999975,47.53055289999975,47.53055289999975,47.53055289999975,47.53055289999975,47.53055289999975,,003,P021,2025_May_08_1150,ConditionRich,2021.2.3,59.959083921175505,
15.75,16.0,41,0.0,Stimuli/Blank.png,0,0,0.0,0,24,24,24,,,,,,,,,,,,,15.77996499999972,0.02996499999972002,None,48.28121370000008,48.28121370000008,48.28121370000008,48.28121370000008,48.28121370000008,48.28121370000008,48.28121370000008,48.28121370000008,48.28121370000008,48.28121370000008,,003,P021,2025_May_08_1150,ConditionRich,2021.2.3,59.959083921175505,
16.0,16.75,16,0.75,Stimuli/P009/sun_bqpyqljaflidcauh.jpg,0,0,0.0,0,25,25,25,,,,,,,,,,,,,16.0149136,0.01491359999999986,None,48.514753600000404,48.514753600000404,48.514753600000404,48.514753600000404,48.514753600000404,48.514753600000404,48.514753600000404,48.514753600000404,48.514753600000404,48.514753600000404,,003,P021,2025_May_08_1150,ConditionRich,2021.2.3,59.959083921175505,
16.75,17.0,41,0.0,Stimuli/Blank.png,0,0,0.0,0,26,26,26,,,,,,,,,,,,,16.764125099999546,0.014125099999546364,None,49.265420800000356,49.265420800000356,49.265420800000356,49.265420800000356,49.265420800000356,49.265420800000356,49.265420800000356,49.265420800000356,49.265420800000356,49.265420800000356,,003,P021,2025_May_08_1150,ConditionRich,2021.2.3,59.959083921175505,
17.0,17.75,16,0.75,Stimuli/P009/sun_bqpyqljaflidcauh.jpg,0,0,0.0,0,27,27,27,,,,,,,,,,,,,17.014885699999468,0.01488569999946776,None,49.51563840000017,49.51563840000017,49.51563840000017,49.51563840000017,49.51563840000017,49.51563840000017,49.51563840000017,49.51563840000017,49.51563840000017,49.51563840000017,,003,P021,2025_May_08_1150,ConditionRich,2021.2.3,59.959083921175505,
17.75,18.0,41,0.0,Stimuli/Blank.png,0,0,0.0,0,28,28,28,,,,,,,,,,,,,17.764950799999497,0.014950799999496667,None,50.26629950000006,50.26629950000006,50.26629950000006,50.26629950000006,50.26629950000006,50.26629950000006,50.26629950000006,50.26629950000006,50.26629950000006,50.26629950000006,,003,P021,2025_May_08_1150,ConditionRich,2021.2.3,59.959083921175505,
18.0,18.75,16,0.75,Stimuli/P009/sun_bqpyqljaflidcauh.jpg,0,0,0.0,0,29,29,29,,,,,,,,,,,,,18.015195500000118,0.015195500000118045,None,50.516519800000424,50.516519800000424,50.516519800000424,50.516519800000424,50.516519800000424,50.516519800000424,50.516519800000424,50.516519800000424,50.516519800000424,50.516519800000424,,003,P021,2025_May_08_1150,ConditionRich,2021.2.3,59.959083921175505,
18.75,19.0,41,0.0,Stimuli/Blank.png,0,0,0.0,0,30,30,30,,,,,,,,,,,,,18.749115300000085,-0.0008846999999150285,None,51.250515599999744,51.250515599999744,51.250515599999744,51.250515599999744,51.250515599999744,51.250515599999744,51.250515599999744,51.250515599999744,51.250515599999744,51.250515599999744,,003,P021,2025_May_08_1150,ConditionRich,2021.2.3,59.959083921175505,
19.0,19.75,16,0.75,Stimuli/P009/sun_bqpyqljaflidcauh.jpg,0,0,0.0,0,31,31,31,,,,,,,,,,,,,19.000155699999596,0.0001556999995955266,None,51.50072650000038,51.50072650000038,51.50072650000038,51.50072650000038,51.50072650000038,51.50072650000038,51.50072650000038,51.50072650000038,51.50072650000038,51.50072650000038,,003,P021,2025_May_08_1150,ConditionRich,2021.2.3,59.959083921175505,
19.75,20.0,41,0.0,Stimuli/Blank.png,0,0,0.0,0,32,32,32,,,,,,,,,,,,,19.75028889999976,0.000288899999759451,None,52.25138800000059,52.25138800000059,52.25138800000059,52.25138800000059,52.25138800000059,52.25138800000059,52.25138800000059,52.25138800000059,52.25138800000059,52.25138800000059,,003,P021,2025_May_08_1150,ConditionRich,2021.2.3,59.959083921175505,
20.0,20.75,14,0.75,Stimuli/P009/sun_blaqxdebghixzyyw.jpg,0,0,0.0,0,33,33,33,,,,,,,,,,,,,20.000469099999464,0.00046909999946365133,None,52.50160820000019,52.50160820000019,52.50160820000019,52.50160820000019,52.50160820000019,52.50160820000019,52.50160820000019,52.50160820000019,52.50160820000019,52.50160820000019,,003,P021,2025_May_08_1150,ConditionRich,2021.2.3,59.959083921175505,
20.75,21.0,41,0.0,Stimuli/Blank.png,0,0,0.0,0,34,34,34,,,,,,,,,,,,,20.75355260000015,0.0035526000001482316,None,53.26897790000021,53.26897790000021,53.26897790000021,53.26897790000021,53.26897790000021,53.26897790000021,53.26897790000021,53.26897790000021,53.26897790000021,53.26897790000021,,003,P021,2025_May_08_1150,ConditionRich,2021.2.3,59.959083921175505,
21.0,21.75,14,0.75,Stimuli/P009/sun_blaqxdebghixzyyw.jpg,0,0,0.0,0,35,35,35,,,,,,,,,,,,,21.018039300000055,0.018039300000054936,None,53.51917980000053,53.51917980000053,53.51917980000053,53.51917980000053,53.51917980000053,53.51917980000053,53.51917980000053,53.51917980000053,53.51917980000053,53.51917980000053,,003,P021,2025_May_08_1150,ConditionRich,2021.2.3,59.959083921175505,
21.75,22.0,41,0.0,Stimuli/Blank.png,0,0,0.0,0,36,36,36,,,,,,,,,,,,,21.753023499999472,0.0030234999994718237,None,54.25315640000008,54.25315640000008,54.25315640000008,54.25315640000008,54.25315640000008,54.25315640000008,54.25315640000008,54.25315640000008,54.25315640000008,54.25315640000008,,003,P021,2025_May_08_1150,ConditionRich,2021.2.3,59.959083921175505,
22.0,22.75,14,0.75,Stimuli/P009/sun_blaqxdebghixzyyw.jpg,0,0,0.0,0,37,37,37,,,,,,,,,,,,,22.00251329999992,0.0025132999999186723,None,54.50337920000038,54.50337920000038,54.50337920000038,54.50337920000038,54.50337920000038,54.50337920000038,54.50337920000038,54.50337920000038,54.50337920000038,54.50337920000038,,003,P021,2025_May_08_1150,ConditionRich,2021.2.3,59.959083921175505,
22.75,23.0,41,0.0,Stimuli/Blank.png,0,0,0.0,0,38,38,38,,,,,,,,,,,,,22.752875700000004,0.0028757000000041444,None,55.25404570000046,55.25404570000046,55.25404570000046,55.25404570000046,55.25404570000046,55.25404570000046,55.25404570000046,55.25404570000046,55.25404570000046,55.25404570000046,,003,P021,2025_May_08_1150,ConditionRich,2021.2.3,59.959083921175505,
23.0,23.75,14,0.75,Stimuli/P009/sun_blaqxdebghixzyyw.jpg,0,0,0.0,0,39,39,39,,,,,,,,,,,,,23.003842399999485,0.003842399999484769,None,55.52097180000055,55.52097180000055,55.52097180000055,55.52097180000055,55.52097180000055,55.52097180000055,55.52097180000055,55.52097180000055,55.52097180000055,55.52097180000055,,003,P021,2025_May_08_1150,ConditionRich,2021.2.3,59.959083921175505,
23.75,24.0,41,0.0,Stimuli/Blank.png,0,0,0.0,0,40,40,40,,,,,,,,,,,,,23.770149399999355,0.0201493999993545,None,56.2716105999998,56.2716105999998,56.2716105999998,56.2716105999998,56.2716105999998,56.2716105999998,56.2716105999998,56.2716105999998,56.2716105999998,56.2716105999998,,003,P021,2025_May_08_1150,ConditionRich,2021.2.3,59.959083921175505,
24.0,24.75,18,0.75,Stimuli/P009/sun_bwjdahsxcqepqqbm.jpg,0,0,0.0,0,41,41,41,,,,,,,,,,,,,24.00519219999933,0.005192199999328295,None,56.5051469,56.5051469,56.5051469,56.5051469,56.5051469,56.5051469,56.5051469,56.5051469,56.5051469,56.5051469,,003,P021,2025_May_08_1150,ConditionRich,2021.2.3,59.959083921175505,
24.75,25.0,41,0.0,Stimuli/Blank.png,0,0,0.0,0,42,42,42,,,,,,,,,,,,,24.754546999999548,0.004546999999547552,None,57.25582130000021,57.25582130000021,57.25582130000021,57.25582130000021,57.25582130000021,57.25582130000021,57.25582130000021,57.25582130000021,57.25582130000021,57.25582130000021,,003,P021,2025_May_08_1150,ConditionRich,2021.2.3,59.959083921175505,
25.0,25.75,18,0.75,Stimuli/P009/sun_bwjdahsxcqepqqbm.jpg,0,0,0.0,0,43,43,43,,,,,,,,,,,,,25.004778800000167,0.004778800000167394,None,57.50603560000036,57.50603560000036,57.50603560000036,57.50603560000036,57.50603560000036,57.50603560000036,57.50603560000036,57.50603560000036,57.50603560000036,57.50603560000036,,003,P021,2025_May_08_1150,ConditionRich,2021.2.3,59.959083921175505,
25.75,26.0,41,0.0,Stimuli/Blank.png,0,0,0.0,0,44,44,44,,,,,,,,,,,,,25.756140999999843,0.0061409999998431886,None,58.25669689999995,58.25669689999995,58.25669689999995,58.25669689999995,58.25669689999995,58.25669689999995,58.25669689999995,58.25669689999995,58.25669689999995,58.25669689999995,,003,P021,2025_May_08_1150,ConditionRich,2021.2.3,59.959083921175505,
26.0,26.75,18,0.75,Stimuli/P009/sun_bwjdahsxcqepqqbm.jpg,0,0,0.0,0,45,45,45,,,,,,,,,,,,,26.006811199999902,0.0068111999999018735,None,58.523603300000104,58.523603300000104,58.523603300000104,58.523603300000104,58.523603300000104,58.523603300000104,58.523603300000104,58.523603300000104,58.523603300000104,58.523603300000104,,003,P021,2025_May_08_1150,ConditionRich,2021.2.3,59.959083921175505,
26.75,27.0,41,0.0,Stimuli/Blank.png,0,0,0.0,0,46,46,46,,,,,,,,,,,,,26.774411299999883,0.02441129999988334,None,59.27427970000008,59.27427970000008,59.27427970000008,59.27427970000008,59.27427970000008,59.27427970000008,59.27427970000008,59.27427970000008,59.27427970000008,59.27427970000008,,003,P021,2025_May_08_1150,ConditionRich,2021.2.3,59.959083921175505,
27.0,27.75,18,0.75,Stimuli/P009/sun_bwjdahsxcqepqqbm.jpg,0,0,0.0,0,47,47,47,,,,,,,,,,,,,27.00888699999996,0.008886999999958789,None,59.52449650000017,59.52449650000017,59.52449650000017,59.52449650000017,59.52449650000017,59.52449650000017,59.52449650000017,59.52449650000017,59.52449650000017,59.52449650000017,,003,P021,2025_May_08_1150,ConditionRich,2021.2.3,59.959083921175505,
27.75,28.0,41,0.0,Stimuli/Blank.png,0,0,0.0,0,48,48,48,,,,,,,,,,,,,27.77432559999943,0.02432559999942896,None,60.27516370000012,60.27516370000012,60.27516370000012,60.27516370000012,60.27516370000012,60.27516370000012,60.27516370000012,60.27516370000012,60.27516370000012,60.27516370000012,,003,P021,2025_May_08_1150,ConditionRich,2021.2.3,59.959083921175505,
28.0,28.75,20,0.75,Stimuli/P009/sun_ddsiwinthvyejghq.jpg,0,0,0.0,0,49,49,49,,,,,,,,,,,,,28.007808899999873,0.007808899999872665,None,60.50870589999977,60.50870589999977,60.50870589999977,60.50870589999977,60.50870589999977,60.50870589999977,60.50870589999977,60.50870589999977,60.50870589999977,60.50870589999977,,003,P021,2025_May_08_1150,ConditionRich,2021.2.3,59.959083921175505,
28.75,29.0,41,0.0,Stimuli/Blank.png,0,0,0.0,0,50,50,50,,,,,,,,,,,,,28.758262599999398,0.008262599999397935,None,61.25935190000018,61.25935190000018,61.25935190000018,61.25935190000018,61.25935190000018,61.25935190000018,61.25935190000018,61.25935190000018,61.25935190000018,61.25935190000018,,003,P021,2025_May_08_1150,ConditionRich,2021.2.3,59.959083921175505,
29.0,29.75,20,0.75,Stimuli/P009/sun_ddsiwinthvyejghq.jpg,1,0,0.75,0,51,51,51,,,,,,,,,,,,,29.008820399999422,0.00882039999942208,1,61.52626990000044,61.52626990000044,61.52626990000044,61.52626990000044,61.52626990000044,61.52626990000044,61.52626990000044,62.24357920000057,61.52626990000044,61.52626990000044,0.4328949000000648,003,P021,2025_May_08_1150,ConditionRich,2021.2.3,59.959083921175505,
29.75,30.0,41,0.0,Stimuli/Blank.png,0,0,0.0,0,52,52,52,,,,,,,,,,,,,29.77558229999977,0.02558229999976902,None,62.27692360000037,62.27692360000037,62.27692360000037,62.27692360000037,62.27692360000037,62.27692360000037,62.27692360000037,62.27692360000037,62.27692360000037,62.27692360000037,,003,P021,2025_May_08_1150,ConditionRich,2021.2.3,59.959083921175505,
30.0,30.75,20,0.75,Stimuli/P009/sun_ddsiwinthvyejghq.jpg,0,0,0.0,0,53,53,53,,,,,,,,,,,,,30.009512599999653,0.009512599999652593,None,62.51046039999983,62.51046039999983,62.51046039999983,62.51046039999983,62.51046039999983,62.51046039999983,62.51046039999983,62.51046039999983,62.51046039999983,62.51046039999983,,003,P021,2025_May_08_1150,ConditionRich,2021.2.3,59.959083921175505,
30.75,31.0,41,0.0,Stimuli/Blank.png,0,0,0.0,0,54,54,54,,,,,,,,,,,,,30.76038719999997,0.010387199999968288,None,63.261120300000584,63.261120300000584,63.261120300000584,63.261120300000584,63.261120300000584,63.261120300000584,63.261120300000584,63.261120300000584,63.261120300000584,63.261120300000584,,003,P021,2025_May_08_1150,ConditionRich,2021.2.3,59.959083921175505,
31.0,31.75,20,0.75,Stimuli/P009/sun_ddsiwinthvyejghq.jpg,0,0,0.0,0,55,55,55,,,,,,,,,,,,,31.010216499999842,0.010216499999842199,None,63.51131830000031,63.51131830000031,63.51131830000031,63.51131830000031,63.51131830000031,63.51131830000031,63.51131830000031,63.51131830000031,63.51131830000031,63.51131830000031,,003,P021,2025_May_08_1150,ConditionRich,2021.2.3,59.959083921175505,
31.75,32.0,41,0.0,Stimuli/Blank.png,0,0,0.0,0,56,56,56,,,,,,,,,,,,,31.761446999999862,0.011446999999861873,None,64.26207969999996,64.26207969999996,64.26207969999996,64.26207969999996,64.26207969999996,64.26207969999996,64.26207969999996,64.26207969999996,64.26207969999996,64.26207969999996,,003,P021,2025_May_08_1150,ConditionRich,2021.2.3,59.959083921175505,
32.0,32.75,5,0.75,Stimuli/P009/sun_akqvdmuauoxeafrj.jpg,0,0,0.0,0,57,57,57,,,,,,,,,,,,,32.012374799999634,0.012374799999633979,None,64.52894340000057,64.52894340000057,64.52894340000057,64.52894340000057,64.52894340000057,64.52894340000057,64.52894340000057,64.52894340000057,64.52894340000057,64.52894340000057,,003,P021,2025_May_08_1150,ConditionRich,2021.2.3,59.959083921175505,
32.75,33.0,41,0.0,Stimuli/Blank.png,0,0,0.0,0,58,58,58,,,,,,,,,,,,,32.77962680000019,0.02962680000018736,None,65.27957390000029,65.27957390000029,65.27957390000029,65.27957390000029,65.27957390000029,65.27957390000029,65.27957390000029,65.27957390000029,65.27957390000029,65.27957390000029,,003,P021,2025_May_08_1150,ConditionRich,2021.2.3,59.959083921175505,
33.0,33.75,5,0.75,Stimuli/P009/sun_akqvdmuauoxeafrj.jpg,0,0,0.0,0,59,59,59,,,,,,,,,,,,,33.01371729999937,0.01371729999937088,None,65.52980690000004,65.52980690000004,65.52980690000004,65.52980690000004,65.52980690000004,65.52980690000004,65.52980690000004,65.52980690000004,65.52980690000004,65.52980690000004,,003,P021,2025_May_08_1150,ConditionRich,2021.2.3,59.959083921175505,
33.75,34.0,41,0.0,Stimuli/Blank.png,0,0,0.0,0,60,60,60,,,,,,,,,,,,,33.77994129999934,0.02994129999933648,None,66.28046470000027,66.28046470000027,66.28046470000027,66.28046470000027,66.28046470000027,66.28046470000027,66.28046470000027,66.28046470000027,66.28046470000027,66.28046470000027,,003,P021,2025_May_08_1150,ConditionRich,2021.2.3,59.959083921175505,
34.0,34.75,5,0.75,Stimuli/P009/sun_akqvdmuauoxeafrj.jpg,0,0,0.0,0,61,61,61,,,,,,,,,,,,,34.01402700000017,0.01402700000016921,None,66.53068530000019,66.53068530000019,66.53068530000019,66.53068530000019,66.53068530000019,66.53068530000019,66.53068530000019,66.53068530000019,66.53068530000019,66.53068530000019,,003,P021,2025_May_08_1150,ConditionRich,2021.2.3,59.959083921175505,
34.75,35.0,41,0.0,Stimuli/Blank.png,0,0,0.0,0,62,62,62,,,,,,,,,,,,,34.78018059999977,0.030180599999766855,None,67.28134440000031,67.28134440000031,67.28134440000031,67.28134440000031,67.28134440000031,67.28134440000031,67.28134440000031,67.28134440000031,67.28134440000031,67.28134440000031,,003,P021,2025_May_08_1150,ConditionRich,2021.2.3,59.959083921175505,
35.0,35.75,5,0.75,Stimuli/P009/sun_akqvdmuauoxeafrj.jpg,0,0,0.0,0,63,63,63,,,,,,,,,,,,,35.01423849999992,0.01423849999991944,None,67.51489579999998,67.51489579999998,67.51489579999998,67.51489579999998,67.51489579999998,67.51489579999998,67.51489579999998,67.51489579999998,67.51489579999998,67.51489579999998,,003,P021,2025_May_08_1150,ConditionRich,2021.2.3,59.959083921175505,
35.75,36.0,41,0.0,Stimuli/Blank.png,0,0,0.0,0,64,64,64,,,,,,,,,,,,,35.76473569999962,0.0147356999996191,None,68.26554170000054,68.26554170000054,68.26554170000054,68.26554170000054,68.26554170000054,68.26554170000054,68.26554170000054,68.26554170000054,68.26554170000054,68.26554170000054,,003,P021,2025_May_08_1150,ConditionRich,2021.2.3,59.959083921175505,
36.0,36.75,38,0.75,Stimuli/P009/things_roadsweeper_05s.jpg,0,0,0.0,0,65,65,65,,,,,,,,,,,,,36.01459189999969,0.014591899999686575,None,68.51576079999995,68.51576079999995,68.51576079999995,68.51576079999995,68.51576079999995,68.51576079999995,68.51576079999995,68.51576079999995,68.51576079999995,68.51576079999995,,003,P021,2025_May_08_1150,ConditionRich,2021.2.3,59.959083921175505,
36.75,37.0,41,0.0,Stimuli/Blank.png,0,0,0.0,0,66,66,66,,,,,,,,,,,,,36.76503219999995,0.015032199999950535,None,69.26642790000005,69.26642790000005,69.26642790000005,69.26642790000005,69.26642790000005,69.26642790000005,69.26642790000005,69.26642790000005,69.26642790000005,69.26642790000005,,003,P021,2025_May_08_1150,ConditionRich,2021.2.3,59.959083921175505,
37.0,37.75,38,0.75,Stimuli/P009/things_roadsweeper_05s.jpg,0,0,0.0,0,67,67,67,,,,,,,,,,,,,37.015367799999694,0.015367799999694398,None,69.51664810000057,69.51664810000057,69.51664810000057,69.51664810000057,69.51664810000057,69.51664810000057,69.51664810000057,69.51664810000057,69.51664810000057,69.51664810000057,,003,P021,2025_May_08_1150,ConditionRich,2021.2.3,59.959083921175505,
37.75,38.0,41,0.0,Stimuli/Blank.png,0,0,0.0,0,68,68,68,,,,,,,,,,,,,37.74964679999994,-0.00035320000006322516,None,70.2506441000005,70.2506441000005,70.2506441000005,70.2506441000005,70.2506441000005,70.2506441000005,70.2506441000005,70.2506441000005,70.2506441000005,70.2506441000005,,003,P021,2025_May_08_1150,ConditionRich,2021.2.3,59.959083921175505,
38.0,38.75,38,0.75,Stimuli/P009/things_roadsweeper_05s.jpg,0,0,0.0,0,69,69,69,,,,,,,,,,,,,38.000133200000164,0.00013320000016392441,None,70.51753530000042,70.51753530000042,70.51753530000042,70.51753530000042,70.51753530000042,70.51753530000042,70.51753530000042,70.51753530000042,70.51753530000042,70.51753530000042,,003,P021,2025_May_08_1150,ConditionRich,2021.2.3,59.959083921175505,
38.75,39.0,41,0.0,Stimuli/Blank.png,0,0,0.0,0,70,70,70,,,,,,,,,,,,,38.769246400000156,0.019246400000156427,None,71.28488780000043,71.28488780000043,71.28488780000043,71.28488780000043,71.28488780000043,71.28488780000043,71.28488780000043,71.28488780000043,71.28488780000043,71.28488780000043,,003,P021,2025_May_08_1150,ConditionRich,2021.2.3,59.959083921175505,
39.0,39.75,38,0.75,Stimuli/P009/things_roadsweeper_05s.jpg,0,0,0.0,0,71,71,71,,,,,,,,,,,,,39.0190292999996,0.01902929999960179,None,71.53511450000042,71.53511450000042,71.53511450000042,71.53511450000042,71.53511450000042,71.53511450000042,71.53511450000042,71.53511450000042,71.53511450000042,71.53511450000042,,003,P021,2025_May_08_1150,ConditionRich,2021.2.3,59.959083921175505,
39.75,40.0,41,0.0,Stimuli/Blank.png,0,0,0.0,0,72,72,72,,,,,,,,,,,,,39.767859300000055,0.017859300000054645,None,72.26909100000012,72.26909100000012,72.26909100000012,72.26909100000012,72.26909100000012,72.26909100000012,72.26909100000012,72.26909100000012,72.26909100000012,72.26909100000012,,003,P021,2025_May_08_1150,ConditionRich,2021.2.3,59.959083921175505,
40.0,40.75,40,0.75,Stimuli/P009/things_woman_05s.jpg,1,0,0.75,0,73,73,73,,,,,,,,,,,,,40.00202249999984,0.002022499999839056,1,72.51930119999997,72.51930119999997,72.51930119999997,72.51930119999997,72.51930119999997,72.51930119999997,72.51930119999997,73.2366004000005,72.51930119999997,72.51930119999997,0.5093268999999054,003,P021,2025_May_08_1150,ConditionRich,2021.2.3,59.959083921175505,
40.75,41.0,41,0.0,Stimuli/Blank.png,0,0,0.0,0,74,74,74,,,,,,,,,,,,,40.768721800000094,0.018721800000093936,None,73.2699690999998,73.2699690999998,73.2699690999998,73.2699690999998,73.2699690999998,73.2699690999998,73.2699690999998,73.2699690999998,73.2699690999998,73.2699690999998,,003,P021,2025_May_08_1150,ConditionRich,2021.2.3,59.959083921175505,
41.0,41.75,40,0.75,Stimuli/P009/things_woman_05s.jpg,0,0,0.0,0,75,75,75,,,,,,,,,,,,,41.00220509999963,0.002205099999628146,None,73.50350530000014,73.50350530000014,73.50350530000014,73.50350530000014,73.50350530000014,73.50350530000014,73.50350530000014,73.50350530000014,73.50350530000014,73.50350530000014,,003,P021,2025_May_08_1150,ConditionRich,2021.2.3,59.959083921175505,
41.75,42.0,41,0.0,Stimuli/Blank.png,0,0,0.0,0,76,76,76,,,,,,,,,,,,,41.753069100000175,0.00306910000017524,None,74.25417170000037,74.25417170000037,74.25417170000037,74.25417170000037,74.25417170000037,74.25417170000037,74.25417170000037,74.25417170000037,74.25417170000037,74.25417170000037,,003,P021,2025_May_08_1150,ConditionRich,2021.2.3,59.959083921175505,
42.0,42.75,40,0.75,Stimuli/P009/things_woman_05s.jpg,0,0,0.0,0,77,77,77,,,,,,,,,,,,,42.00368689999959,0.0036868999995931517,None,74.5210775000005,74.5210775000005,74.5210775000005,74.5210775000005,74.5210775000005,74.5210775000005,74.5210775000005,74.5210775000005,74.5210775000005,74.5210775000005,,003,P021,2025_May_08_1150,ConditionRich,2021.2.3,59.959083921175505,
42.75,43.0,41,0.0,Stimuli/Blank.png,0,0,0.0,0,78,78,78,,,,,,,,,,,,,42.77101330000005,0.02101330000004964,None,75.27173550000043,75.27173550000043,75.27173550000043,75.27173550000043,75.27173550000043,75.27173550000043,75.27173550000043,75.27173550000043,75.27173550000043,75.27173550000043,,003,P021,2025_May_08_1150,ConditionRich,2021.2.3,59.959083921175505,
43.0,43.75,40,0.75,Stimuli/P009/things_woman_05s.jpg,0,0,0.0,0,79,79,79,,,,,,,,,,,,,43.00477589999991,0.004775899999913236,None,75.5219831000004,75.5219831000004,75.5219831000004,75.5219831000004,75.5219831000004,75.5219831000004,75.5219831000004,75.5219831000004,75.5219831000004,75.5219831000004,,003,P021,2025_May_08_1150,ConditionRich,2021.2.3,59.959083921175505,
43.75,44.0,41,0.0,Stimuli/Blank.png,0,0,0.0,0,80,80,80,,,,,,,,,,,,,43.77133999999933,0.02133999999932712,None,76.2727087000003,76.2727087000003,76.2727087000003,76.2727087000003,76.2727087000003,76.2727087000003,76.2727087000003,76.2727087000003,76.2727087000003,76.2727087000003,,003,P021,2025_May_08_1150,ConditionRich,2021.2.3,59.959083921175505,
44.0,44.75,34,0.75,Stimuli/P009/things_man_05s.jpg,0,0,0.0,0,81,81,81,,,,,,,,,,,,,44.00477030000002,0.004770300000018324,None,76.50616260000061,76.50616260000061,76.50616260000061,76.50616260000061,76.50616260000061,76.50616260000061,76.50616260000061,76.50616260000061,76.50616260000061,76.50616260000061,,003,P021,2025_May_08_1150,ConditionRich,2021.2.3,59.959083921175505,
44.75,45.0,41,0.0,Stimuli/Blank.png,0,0,0.0,0,82,82,82,,,,,,,,,,,,,44.75545969999985,0.0054596999998466345,None,77.25682920000054,77.25682920000054,77.25682920000054,77.25682920000054,77.25682920000054,77.25682920000054,77.25682920000054,77.25682920000054,77.25682920000054,77.25682920000054,,003,P021,2025_May_08_1150,ConditionRich,2021.2.3,59.959083921175505,
45.0,45.75,34,0.75,Stimuli/P009/things_man_05s.jpg,0,0,0.0,0,83,83,83,,,,,,,,,,,,,45.00860130000001,0.00860130000000936,None,77.52373510000052,77.52373510000052,77.52373510000052,77.52373510000052,77.52373510000052,77.52373510000052,77.52373510000052,77.52373510000052,77.52373510000052,77.52373510000052,,003,P021,2025_May_08_1150,ConditionRich,2021.2.3,59.959083921175505,
45.75,46.0,41,0.0,Stimuli/Blank.png,0,0,0.0,0,84,84,84,,,,,,,,,,,,,45.775114799999756,0.025114799999755633,None,78.29115420000016,78.29115420000016,78.29115420000016,78.29115420000016,78.29115420000016,78.29115420000016,78.29115420000016,78.29115420000016,78.29115420000016,78.29115420000016,,003,P021,2025_May_08_1150,ConditionRich,2021.2.3,59.959083921175505,
46.0,46.75,34,0.75,Stimuli/P009/things_man_05s.jpg,0,0,0.0,0,85,85,85,,,,,,,,,,,,,46.0235617999997,0.02356179999969754,None,78.52461500000027,78.52461500000027,78.52461500000027,78.52461500000027,78.52461500000027,78.52461500000027,78.52461500000027,78.52461500000027,78.52461500000027,78.52461500000027,,003,P021,2025_May_08_1150,ConditionRich,2021.2.3,59.959083921175505,
46.75,47.0,41,0.0,Stimuli/Blank.png,0,0,0.0,0,86,86,86,,,,,,,,,,,,,46.759265400000004,0.009265400000003865,None,79.27529940000022,79.27529940000022,79.27529940000022,79.27529940000022,79.27529940000022,79.27529940000022,79.27529940000022,79.27529940000022,79.27529940000022,79.27529940000022,,003,P021,2025_May_08_1150,ConditionRich,2021.2.3,59.959083921175505,
47.0,47.75,34,0.75,Stimuli/P009/things_man_05s.jpg,0,0,0.0,0,87,87,87,,,,,,,,,,,,,47.02406220000012,0.024062200000116718,None,79.52549869999984,79.52549869999984,79.52549869999984,79.52549869999984,79.52549869999984,79.52549869999984,79.52549869999984,79.52549869999984,79.52549869999984,79.52549869999984,,003,P021,2025_May_08_1150,ConditionRich,2021.2.3,59.959083921175505,
47.75,48.0,41,0.0,Stimuli/Blank.png,0,0,0.0,0,88,88,88,,,,,,,,,,,,,47.75830399999995,0.008303999999952794,None,80.25948419999986,80.25948419999986,80.25948419999986,80.25948419999986,80.25948419999986,80.25948419999986,80.25948419999986,80.25948419999986,80.25948419999986,80.25948419999986,,003,P021,2025_May_08_1150,ConditionRich,2021.2.3,59.959083921175505,
48.0,48.75,31,0.75,Stimuli/P009/things_girl_05s.jpg,0,0,0.0,0,89,89,89,,,,,,,,,,,,,48.00982380000005,0.009823800000049232,None,80.52638320000005,80.52638320000005,80.52638320000005,80.52638320000005,80.52638320000005,80.52638320000005,80.52638320000005,80.52638320000005,80.52638320000005,80.52638320000005,,003,P021,2025_May_08_1150,ConditionRich,2021.2.3,59.959083921175505,
48.75,49.0,41,0.0,Stimuli/Blank.png,0,0,0.0,0,90,90,90,,,,,,,,,,,,,48.77557230000002,0.02557230000002164,None,81.27704670000003,81.27704670000003,81.27704670000003,81.27704670000003,81.27704670000003,81.27704670000003,81.27704670000003,81.27704670000003,81.27704670000003,81.27704670000003,,003,P021,2025_May_08_1150,ConditionRich,2021.2.3,59.959083921175505,
49.0,49.75,31,0.75,Stimuli/P009/things_girl_05s.jpg,0,0,0.0,0,91,91,91,,,,,,,,,,,,,49.00934629999938,0.00934629999937897,None,81.51055559999986,81.51055559999986,81.51055559999986,81.51055559999986,81.51055559999986,81.51055559999986,81.51055559999986,81.51055559999986,81.51055559999986,81.51055559999986,,003,P021,2025_May_08_1150,ConditionRich,2021.2.3,59.959083921175505,
49.75,50.0,41,0.0,Stimuli/Blank.png,0,0,0.0,0,92,92,92,,,,,,,,,,,,,49.75999539999975,0.009995399999752408,None,82.26125820000016,82.26125820000016,82.26125820000016,82.26125820000016,82.26125820000016,82.26125820000016,82.26125820000016,82.26125820000016,82.26125820000016,82.26125820000016,,003,P021,2025_May_08_1150,ConditionRich,2021.2.3,59.959083921175505,
50.0,50.75,31,0.75,Stimuli/P009/things_girl_05s.jpg,0,0,0.0,0,93,93,93,,,,,,,,,,,,,50.010848399999304,0.010848399999304092,None,82.51139849999981,82.51139849999981,82.51139849999981,82.51139849999981,82.51139849999981,82.51139849999981,82.51139849999981,82.51139849999981,82.51139849999981,82.51139849999981,,003,P021,2025_May_08_1150,ConditionRich,2021.2.3,59.959083921175505,
50.75,51.0,41,0.0,Stimuli/Blank.png,0,0,0.0,0,94,94,94,,,,,,,,,,,,,50.76108049999948,0.011080499999479798,None,83.26220689999991,83.26220689999991,83.26220689999991,83.26220689999991,83.26220689999991,83.26220689999991,83.26220689999991,83.26220689999991,83.26220689999991,83.26220689999991,,003,P021,2025_May_08_1150,ConditionRich,2021.2.3,59.959083921175505,
51.0,51.75,31,0.75,Stimuli/P009/things_girl_05s.jpg,0,0,0.0,0,95,95,95,,,,,,,,,,,,,51.01095709999936,0.010957099999359343,None,83.51234970000041,83.51234970000041,83.51234970000041,83.51234970000041,83.51234970000041,83.51234970000041,83.51234970000041,83.51234970000041,83.51234970000041,83.51234970000041,,003,P021,2025_May_08_1150,ConditionRich,2021.2.3,59.959083921175505,
51.75,52.0,41,0.0,Stimuli/Blank.png,0,0,0.0,0,96,96,96,,,,,,,,,,,,,51.7629038999994,0.012903899999400892,None,84.2630151000003,84.2630151000003,84.2630151000003,84.2630151000003,84.2630151000003,84.2630151000003,84.2630151000003,84.2630151000003,84.2630151000003,84.2630151000003,,003,P021,2025_May_08_1150,ConditionRich,2021.2.3,59.959083921175505,
52.0,52.75,23,0.75,Stimuli/P009/things_charger_05s.jpg,0,0,0.0,0,97,97,97,,,,,,,,,,,,,52.012491299999965,0.012491299999965122,None,84.51324180000029,84.51324180000029,84.51324180000029,84.51324180000029,84.51324180000029,84.51324180000029,84.51324180000029,84.51324180000029,84.51324180000029,84.51324180000029,,003,P021,2025_May_08_1150,ConditionRich,2021.2.3,59.959083921175505,
52.75,53.0,41,0.0,Stimuli/Blank.png,0,0,0.0,0,98,98,98,,,,,,,,,,,,,52.76319559999956,0.013195599999562546,None,85.26391169999988,85.26391169999988,85.26391169999988,85.26391169999988,85.26391169999988,85.26391169999988,85.26391169999988,85.26391169999988,85.26391169999988,85.26391169999988,,003,P021,2025_May_08_1150,ConditionRich,2021.2.3,59.959083921175505,
53.0,53.75,23,0.75,Stimuli/P009/things_charger_05s.jpg,0,0,0.0,0,99,99,99,,,,,,,,,,,,,53.013573799999904,0.013573799999903713,None,85.51412489999984,85.51412489999984,85.51412489999984,85.51412489999984,85.51412489999984,85.51412489999984,85.51412489999984,85.51412489999984,85.51412489999984,85.51412489999984,,003,P021,2025_May_08_1150,ConditionRich,2021.2.3,59.959083921175505,
53.75,54.0,41,0.0,Stimuli/Blank.png,0,0,0.0,0,100,100,100,,,,,,,,,,,,,53.76406119999956,0.014061199999559904,None,86.26479410000047,86.26479410000047,86.26479410000047,86.26479410000047,86.26479410000047,86.26479410000047,86.26479410000047,86.26479410000047,86.26479410000047,86.26479410000047,,003,P021,2025_May_08_1150,ConditionRich,2021.2.3,59.959083921175505,
54.0,54.75,23,0.75,Stimuli/P009/things_charger_05s.jpg,0,0,0.0,0,101,101,101,,,,,,,,,,,,,54.014566699999705,0.014566699999704724,None,86.51500570000007,86.51500570000007,86.51500570000007,86.51500570000007,86.51500570000007,86.51500570000007,86.51500570000007,86.51500570000007,86.51500570000007,86.51500570000007,,003,P021,2025_May_08_1150,ConditionRich,2021.2.3,59.959083921175505,
54.75,55.0,41,0.0,Stimuli/Blank.png,0,0,0.0,0,102,102,102,,,,,,,,,,,,,54.76485469999989,0.014854699999887089,None,87.2656748999998,87.2656748999998,87.2656748999998,87.2656748999998,87.2656748999998,87.2656748999998,87.2656748999998,87.2656748999998,87.2656748999998,87.2656748999998,,003,P021,2025_May_08_1150,ConditionRich,2021.2.3,59.959083921175505,
55.0,55.75,23,0.75,Stimuli/P009/things_charger_05s.jpg,0,0,0.0,0,103,103,103,,,,,,,,,,,,,55.01455089999945,0.01455089999944903,None,87.51588750000064,87.51588750000064,87.51588750000064,87.51588750000064,87.51588750000064,87.51588750000064,87.51588750000064,87.51588750000064,87.51588750000064,87.51588750000064,,003,P021,2025_May_08_1150,ConditionRich,2021.2.3,59.959083921175505,
55.75,56.0,41,0.0,Stimuli/Blank.png,0,0,0.0,0,104,104,104,,,,,,,,,,,,,55.765768899999784,0.01576889999978448,None,88.26655600000049,88.26655600000049,88.26655600000049,88.26655600000049,88.26655600000049,88.26655600000049,88.26655600000049,88.26655600000049,88.26655600000049,88.26655600000049,,003,P021,2025_May_08_1150,ConditionRich,2021.2.3,59.959083921175505,
56.0,56.75,19,0.75,Stimuli/P009/sun_bwvfnogmotsvhofs.jpg,0,0,0.0,0,105,105,105,,,,,,,,,,,,,55.99864619999971,-0.0013538000002881745,None,88.5001099000001,88.5001099000001,88.5001099000001,88.5001099000001,88.5001099000001,88.5001099000001,88.5001099000001,88.5001099000001,88.5001099000001,88.5001099000001,,003,P021,2025_May_08_1150,ConditionRich,2021.2.3,59.959083921175505,
56.75,57.0,41,0.0,Stimuli/Blank.png,0,0,0.0,0,106,106,106,,,,,,,,,,,,,56.74948080000013,-0.0005191999998714891,None,89.25077049999982,89.25077049999982,89.25077049999982,89.25077049999982,89.25077049999982,89.25077049999982,89.25077049999982,89.25077049999982,89.25077049999982,89.25077049999982,,003,P021,2025_May_08_1150,ConditionRich,2021.2.3,59.959083921175505,
57.0,57.75,19,0.75,Stimuli/P009/sun_bwvfnogmotsvhofs.jpg,1,0,0.75,0,107,107,107,,,,,,,,,,,,,57.00002140000015,2.1400000150606502e-05,None,89.5009742000002,89.5009742000002,89.5009742000002,89.5009742000002,89.5009742000002,89.5009742000002,89.5009742000002,90.23496010000054,89.5009742000002,89.5009742000002,,003,P021,2025_May_08_1150,ConditionRich,2021.2.3,59.959083921175505,
57.75,58.0,41,0.0,Stimuli/Blank.png,0,0,0.0,0,108,108,108,,,,,,,,,,,,,57.75045119999959,0.00045119999958842527,None,90.25164080000013,90.25164080000013,90.25164080000013,90.25164080000013,90.25164080000013,90.25164080000013,90.25164080000013,90.25164080000013,90.25164080000013,90.25164080000013,,003,P021,2025_May_08_1150,ConditionRich,2021.2.3,59.959083921175505,
58.0,58.75,19,0.75,Stimuli/P009/sun_bwvfnogmotsvhofs.jpg,0,0,0.0,0,109,109,109,,,,,,,,,,,,,58.000870799999575,0.000870799999574956,None,90.50186759999997,90.50186759999997,90.50186759999997,90.50186759999997,90.50186759999997,90.50186759999997,90.50186759999997,90.50186759999997,90.50186759999997,90.50186759999997,,003,P021,2025_May_08_1150,ConditionRich,2021.2.3,59.959083921175505,
58.75,59.0,41,0.0,Stimuli/Blank.png,0,0,0.0,0,110,110,110,,,,,,,,,,,,,58.75387679999949,0.003876799999488867,None,91.2692391999999,91.2692391999999,91.2692391999999,91.2692391999999,91.2692391999999,91.2692391999999,91.2692391999999,91.2692391999999,91.2692391999999,91.2692391999999,,003,P021,2025_May_08_1150,ConditionRich,2021.2.3,59.959083921175505,
59.0,59.75,19,0.75,Stimuli/P009/sun_bwvfnogmotsvhofs.jpg,0,0,0.0,0,111,111,111,,,,,,,,,,,,,59.01864789999945,0.0186478999994506,None,91.51942659999986,91.51942659999986,91.51942659999986,91.51942659999986,91.51942659999986,91.51942659999986,91.51942659999986,91.51942659999986,91.51942659999986,91.51942659999986,,003,P021,2025_May_08_1150,ConditionRich,2021.2.3,59.959083921175505,
59.75,60.0,41,0.0,Stimuli/Blank.png,0,0,0.0,0,112,112,112,,,,,,,,,,,,,59.75477249999949,0.00477249999948981,None,92.27005999999983,92.27005999999983,92.27005999999983,92.27005999999983,92.27005999999983,92.27005999999983,92.27005999999983,92.27005999999983,92.27005999999983,92.27005999999983,,003,P021,2025_May_08_1150,ConditionRich,2021.2.3,59.959083921175505,
60.0,60.75,6,0.75,Stimuli/P009/sun_amkrwcyvinmsylsz.jpg,0,0,0.0,0,113,113,113,,,,,,,,,,,,,60.01946219999991,0.01946219999990717,None,92.52031570000054,92.52031570000054,92.52031570000054,92.52031570000054,92.52031570000054,92.52031570000054,92.52031570000054,92.52031570000054,92.52031570000054,92.52031570000054,,003,P021,2025_May_08_1150,ConditionRich,2021.2.3,59.959083921175505,
60.75,61.0,41,0.0,Stimuli/Blank.png,0,0,0.0,0,114,114,114,,,,,,,,,,,,,60.75410399999964,0.004103999999642838,None,93.25429919999988,93.25429919999988,93.25429919999988,93.25429919999988,93.25429919999988,93.25429919999988,93.25429919999988,93.25429919999988,93.25429919999988,93.25429919999988,,003,P021,2025_May_08_1150,ConditionRich,2021.2.3,59.959083921175505,
61.0,61.75,6,0.75,Stimuli/P009/sun_amkrwcyvinmsylsz.jpg,0,0,0.0,0,115,115,115,,,,,,,,,,,,,61.00331519999963,0.003315199999633478,None,93.5044871,93.5044871,93.5044871,93.5044871,93.5044871,93.5044871,93.5044871,93.5044871,93.5044871,93.5044871,,003,P021,2025_May_08_1150,ConditionRich,2021.2.3,59.959083921175505,
61.75,62.0,41,0.0,Stimuli/Blank.png,0,0,0.0,0,116,116,116,,,,,,,,,,,,,61.754425699999956,0.004425699999956123,None,94.25519280000026,94.25519280000026,94.25519280000026,94.25519280000026,94.25519280000026,94.25519280000026,94.25519280000026,94.25519280000026,94.25519280000026,94.25519280000026,,003,P021,2025_May_08_1150,ConditionRich,2021.2.3,59.959083921175505,
62.0,62.75,6,0.75,Stimuli/P009/sun_amkrwcyvinmsylsz.jpg,0,0,0.0,0,117,117,117,,,,,,,,,,,,,62.004797300000064,0.004797300000063842,None,94.52210920000016,94.52210920000016,94.52210920000016,94.52210920000016,94.52210920000016,94.52210920000016,94.52210920000016,94.52210920000016,94.52210920000016,94.52210920000016,,003,P021,2025_May_08_1150,ConditionRich,2021.2.3,59.959083921175505,
62.75,63.0,41,0.0,Stimuli/Blank.png,0,0,0.0,0,118,118,118,,,,,,,,,,,,,62.773704199999884,0.023704199999883713,None,95.2893965000003,95.2893965000003,95.2893965000003,95.2893965000003,95.2893965000003,95.2893965000003,95.2893965000003,95.2893965000003,95.2893965000003,95.2893965000003,,003,P021,2025_May_08_1150,ConditionRich,2021.2.3,59.959083921175505,
63.0,63.75,6,0.75,Stimuli/P009/sun_amkrwcyvinmsylsz.jpg,0,0,0.0,0,119,119,119,,,,,,,,,,,,,63.02368369999931,0.023683699999310193,None,95.53968910000003,95.53968910000003,95.53968910000003,95.53968910000003,95.53968910000003,95.53968910000003,95.53968910000003,95.53968910000003,95.53968910000003,95.53968910000003,,003,P021,2025_May_08_1150,ConditionRich,2021.2.3,59.959083921175505,
63.75,64.0,41,0.0,Stimuli/Blank.png,0,0,0.0,0,120,120,120,,,,,,,,,,,,,63.773832400000174,0.023832400000173948,None,96.27364490000036,96.27364490000036,96.27364490000036,96.27364490000036,96.27364490000036,96.27364490000036,96.27364490000036,96.27364490000036,96.27364490000036,96.27364490000036,,003,P021,2025_May_08_1150,ConditionRich,2021.2.3,59.959083921175505,
64.0,64.75,12,0.75,Stimuli/P009/sun_birmwgkdtrlevcaf.jpg,0,0,0.0,0,121,121,121,,,,,,,,,,,,,64.00586329999987,0.005863299999873561,None,96.50716780000039,96.50716780000039,96.50716780000039,96.50716780000039,96.50716780000039,96.50716780000039,96.50716780000039,96.50716780000039,96.50716780000039,96.50716780000039,,003,P021,2025_May_08_1150,ConditionRich,2021.2.3,59.959083921175505,
64.75,65.0,41,0.0,Stimuli/Blank.png,0,0,0.0,0,122,122,122,,,,,,,,,,,,,64.75634649999938,0.006346499999381194,None,97.25783740000043,97.25783740000043,97.25783740000043,97.25783740000043,97.25783740000043,97.25783740000043,97.25783740000043,97.25783740000043,97.25783740000043,97.25783740000043,,003,P021,2025_May_08_1150,ConditionRich,2021.2.3,59.959083921175505,
65.0,65.75,12,0.75,Stimuli/P009/sun_birmwgkdtrlevcaf.jpg,1,0,0.75,0,123,123,123,,,,,,,,,,,,,65.00840659999994,0.008406599999943865,1,97.52474280000024,97.52474280000024,97.52474280000024,97.52474280000024,97.52474280000024,97.52474280000024,97.52474280000024,98.2587494999998,97.52474280000024,97.52474280000024,0.4895096000000194,003,P021,2025_May_08_1150,ConditionRich,2021.2.3,59.959083921175505,
65.75,66.0,41,0.0,Stimuli/Blank.png,0,0,0.0,0,124,124,124,,,,,,,,,,,,,65.77486869999939,0.0248686999993879,None,98.27541810000002,98.27541810000002,98.27541810000002,98.27541810000002,98.27541810000002,98.27541810000002,98.27541810000002,98.27541810000002,98.27541810000002,98.27541810000002,,003,P021,2025_May_08_1150,ConditionRich,2021.2.3,59.959083921175505,
66.0,66.75,12,0.75,Stimuli/P009/sun_birmwgkdtrlevcaf.jpg,0,0,0.0,0,125,125,125,,,,,,,,,,,,,66.00755190000018,0.007551900000180467,None,98.50894510000035,98.50894510000035,98.50894510000035,98.50894510000035,98.50894510000035,98.50894510000035,98.50894510000035,98.50894510000035,98.50894510000035,98.50894510000035,,003,P021,2025_May_08_1150,ConditionRich,2021.2.3,59.959083921175505,
66.75,67.0,41,0.0,Stimuli/Blank.png,0,0,0.0,0,126,126,126,,,,,,,,,,,,,66.75892119999935,0.008921199999349483,None,99.25960589999977,99.25960589999977,99.25960589999977,99.25960589999977,99.25960589999977,99.25960589999977,99.25960589999977,99.25960589999977,99.25960589999977,99.25960589999977,,003,P021,2025_May_08_1150,ConditionRich,2021.2.3,59.959083921175505,
67.0,67.75,12,0.75,Stimuli/P009/sun_birmwgkdtrlevcaf.jpg,0,0,0.0,0,127,127,127,,,,,,,,,,,,,67.00827329999993,0.008273299999927985,None,99.50982280000062,99.50982280000062,99.50982280000062,99.50982280000062,99.50982280000062,99.50982280000062,99.50982280000062,99.50982280000062,99.50982280000062,99.50982280000062,,003,P021,2025_May_08_1150,ConditionRich,2021.2.3,59.959083921175505,
67.75,68.0,41,0.0,Stimuli/Blank.png,0,0,0.0,0,128,128,128,,,,,,,,,,,,,67.75977619999958,0.009776199999578239,None,100.26051470000039,100.26051470000039,100.26051470000039,100.26051470000039,100.26051470000039,100.26051470000039,100.26051470000039,100.26051470000039,100.26051470000039,100.26051470000039,,003,P021,2025_May_08_1150,ConditionRich,2021.2.3,59.959083921175505,
68.0,68.75,21,0.75,Stimuli/P009/things_boy_05s.jpg,0,0,0.0,0,129,129,129,,,,,,,,,,,,,68.0096211,0.009621100000003935,None,100.51072550000026,100.51072550000026,100.51072550000026,100.51072550000026,100.51072550000026,100.51072550000026,100.51072550000026,100.51072550000026,100.51072550000026,100.51072550000026,,003,P021,2025_May_08_1150,ConditionRich,2021.2.3,59.959083921175505,
68.75,69.0,41,0.0,Stimuli/Blank.png,0,0,0.0,0,130,130,130,,,,,,,,,,,,,68.7605367999995,0.010536799999499635,None,101.26149590000023,101.26149590000023,101.26149590000023,101.26149590000023,101.26149590000023,101.26149590000023,101.26149590000023,101.26149590000023,101.26149590000023,101.26149590000023,,003,P021,2025_May_08_1150,ConditionRich,2021.2.3,59.959083921175505,
69.0,69.75,21,0.75,Stimuli/P009/things_boy_05s.jpg,0,0,0.0,0,131,131,131,,,,,,,,,,,,,69.01050459999988,0.010504599999876518,None,101.51159199999984,101.51159199999984,101.51159199999984,101.51159199999984,101.51159199999984,101.51159199999984,101.51159199999984,101.51159199999984,101.51159199999984,101.51159199999984,,003,P021,2025_May_08_1150,ConditionRich,2021.2.3,59.959083921175505,
69.75,70.0,41,0.0,Stimuli/Blank.png,0,0,0.0,0,132,132,132,,,,,,,,,,,,,69.76196849999997,0.011968499999966298,None,102.26227670000026,102.26227670000026,102.26227670000026,102.26227670000026,102.26227670000026,102.26227670000026,102.26227670000026,102.26227670000026,102.26227670000026,102.26227670000026,,003,P021,2025_May_08_1150,ConditionRich,2021.2.3,59.959083921175505,
70.0,70.75,21,0.75,Stimuli/P009/things_boy_05s.jpg,0,0,0.0,0,133,133,133,,,,,,,,,,,,,70.01147419999961,0.011474199999611301,None,102.5291600999999,102.5291600999999,102.5291600999999,102.5291600999999,102.5291600999999,102.5291600999999,102.5291600999999,102.5291600999999,102.5291600999999,102.5291600999999,,003,P021,2025_May_08_1150,ConditionRich,2021.2.3,59.959083921175505,
70.75,71.0,41,0.0,Stimuli/Blank.png,0,0,0.0,0,134,134,134,,,,,,,,,,,,,70.7790871999996,0.029087199999594304,None,103.27983519999998,103.27983519999998,103.27983519999998,103.27983519999998,103.27983519999998,103.27983519999998,103.27983519999998,103.27983519999998,103.27983519999998,103.27983519999998,,003,P021,2025_May_08_1150,ConditionRich,2021.2.3,59.959083921175505,
71.0,71.75,21,0.75,Stimuli/P009/things_boy_05s.jpg,0,0,0.0,0,135,135,135,,,,,,,,,,,,,71.01254049999989,0.012540499999886379,None,103.51335550000022,103.51335550000022,103.51335550000022,103.51335550000022,103.51335550000022,103.51335550000022,103.51335550000022,103.51335550000022,103.51335550000022,103.51335550000022,,003,P021,2025_May_08_1150,ConditionRich,2021.2.3,59.959083921175505,
71.75,72.0,41,0.0,Stimuli/Blank.png,0,0,0.0,0,136,136,136,,,,,,,,,,,,,71.76495879999948,0.014958799999476469,None,104.26404210000055,104.26404210000055,104.26404210000055,104.26404210000055,104.26404210000055,104.26404210000055,104.26404210000055,104.26404210000055,104.26404210000055,104.26404210000055,,003,P021,2025_May_08_1150,ConditionRich,2021.2.3,59.959083921175505,
72.0,72.75,4,0.75,Stimuli/P009/sun_afkzdukwewwzqtmr.jpg,0,0,0.0,0,137,137,137,,,,,,,,,,,,,72.01298309999947,0.01298309999947378,None,104.5142448000006,104.5142448000006,104.5142448000006,104.5142448000006,104.5142448000006,104.5142448000006,104.5142448000006,104.5142448000006,104.5142448000006,104.5142448000006,,003,P021,2025_May_08_1150,ConditionRich,2021.2.3,59.959083921175505,
72.75,73.0,41,0.0,Stimuli/Blank.png,0,0,0.0,0,138,138,138,,,,,,,,,,,,,72.76447749999988,0.014477499999884458,None,105.28161760000057,105.28161760000057,105.28161760000057,105.28161760000057,105.28161760000057,105.28161760000057,105.28161760000057,105.28161760000057,105.28161760000057,105.28161760000057,,003,P021,2025_May_08_1150,ConditionRich,2021.2.3,59.959083921175505,
73.0,73.75,4,0.75,Stimuli/P009/sun_afkzdukwewwzqtmr.jpg,0,0,0.0,0,139,139,139,,,,,,,,,,,,,73.03084810000018,0.030848100000184786,None,105.54849590000049,105.54849590000049,105.54849590000049,105.54849590000049,105.54849590000049,105.54849590000049,105.54849590000049,105.54849590000049,105.54849590000049,105.54849590000049,,003,P021,2025_May_08_1150,ConditionRich,2021.2.3,59.959083921175505,
73.75,74.0,41,0.0,Stimuli/Blank.png,0,0,0.0,0,140,140,140,,,,,,,,,,,,,73.78104199999962,0.031041999999615655,None,106.28247900000042,106.28247900000042,106.28247900000042,106.28247900000042,106.28247900000042,106.28247900000042,106.28247900000042,106.28247900000042,106.28247900000042,106.28247900000042,,003,P021,2025_May_08_1150,ConditionRich,2021.2.3,59.959083921175505,
74.0,74.75,4,0.75,Stimuli/P009/sun_afkzdukwewwzqtmr.jpg,0,0,0.0,0,141,141,141,,,,,,,,,,,,,74.01550459999999,0.015504599999985658,None,106.51601590000064,106.51601590000064,106.51601590000064,106.51601590000064,106.51601590000064,106.51601590000064,106.51601590000064,106.51601590000064,106.51601590000064,106.51601590000064,,003,P021,2025_May_08_1150,ConditionRich,2021.2.3,59.959083921175505,
74.75,75.0,41,0.0,Stimuli/Blank.png,0,0,0.0,0,142,142,142,,,,,,,,,,,,,74.74964980000004,-0.0003501999999571126,None,107.24999370000023,107.24999370000023,107.24999370000023,107.24999370000023,107.24999370000023,107.24999370000023,107.24999370000023,107.24999370000023,107.24999370000023,107.24999370000023,,003,P021,2025_May_08_1150,ConditionRich,2021.2.3,59.959083921175505,
75.0,75.75,4,0.75,Stimuli/P009/sun_afkzdukwewwzqtmr.jpg,0,0,0.0,0,143,143,143,,,,,,,,,,,,,74.9995573999995,-0.0004426000004968955,None,107.51692129999992,107.51692129999992,107.51692129999992,107.51692129999992,107.51692129999992,107.51692129999992,107.51692129999992,107.51692129999992,107.51692129999992,107.51692129999992,,003,P021,2025_May_08_1150,ConditionRich,2021.2.3,59.959083921175505,
75.75,76.0,41,0.0,Stimuli/Blank.png,0,0,0.0,0,144,144,144,,,,,,,,,,,,,75.76621029999933,0.016210299999329436,None,108.26763829999982,108.26763829999982,108.26763829999982,108.26763829999982,108.26763829999982,108.26763829999982,108.26763829999982,108.26763829999982,108.26763829999982,108.26763829999982,,003,P021,2025_May_08_1150,ConditionRich,2021.2.3,59.959083921175505,
76.0,76.75,36,0.75,Stimuli/P009/things_pelican_05s.jpg,0,0,0.0,0,145,145,145,,,,,,,,,,,,,76.00069119999989,0.0006911999998919782,None,108.51778939999986,108.51778939999986,108.51778939999986,108.51778939999986,108.51778939999986,108.51778939999986,108.51778939999986,108.51778939999986,108.51778939999986,108.51778939999986,,003,P021,2025_May_08_1150,ConditionRich,2021.2.3,59.959083921175505,
76.75,77.0,41,0.0,Stimuli/Blank.png,0,0,0.0,0,146,146,146,,,,,,,,,,,,,76.76982159999989,0.01982159999988653,None,109.28513930000008,109.28513930000008,109.28513930000008,109.28513930000008,109.28513930000008,109.28513930000008,109.28513930000008,109.28513930000008,109.28513930000008,109.28513930000008,,003,P021,2025_May_08_1150,ConditionRich,2021.2.3,59.959083921175505,
77.0,77.75,36,0.75,Stimuli/P009/things_pelican_05s.jpg,1,0,0.75,0,147,147,147,,,,,,,,,,,,,77.02007390000017,0.020073900000170397,1,109.55206120000003,109.55206120000003,109.55206120000003,109.55206120000003,109.55206120000003,109.55206120000003,109.55206120000003,110.2693319,109.55206120000003,109.55206120000003,0.5601239999996324,003,P021,2025_May_08_1150,ConditionRich,2021.2.3,59.959083921175505,
77.75,78.0,41,0.0,Stimuli/Blank.png,0,0,0.0,0,148,148,148,,,,,,,,,,,,,77.78457290000006,0.034572900000057416,None,110.2860410000003,110.2860410000003,110.2860410000003,110.2860410000003,110.2860410000003,110.2860410000003,110.2860410000003,110.2860410000003,110.2860410000003,110.2860410000003,,003,P021,2025_May_08_1150,ConditionRich,2021.2.3,59.959083921175505,
78.0,78.75,36,0.75,Stimuli/P009/things_pelican_05s.jpg,0,0,0.0,0,149,149,149,,,,,,,,,,,,,78.00378349999937,0.0037834999993719975,None,110.51955970000017,110.51955970000017,110.51955970000017,110.51955970000017,110.51955970000017,110.51955970000017,110.51955970000017,110.51955970000017,110.51955970000017,110.51955970000017,,003,P021,2025_May_08_1150,ConditionRich,2021.2.3,59.959083921175505,
78.75,79.0,41,0.0,Stimuli/Blank.png,0,0,0.0,0,150,150,150,,,,,,,,,,,,,78.7697935999995,0.019793599999502476,None,111.27022140000008,111.27022140000008,111.27022140000008,111.27022140000008,111.27022140000008,111.27022140000008,111.27022140000008,111.27022140000008,111.27022140000008,111.27022140000008,,003,P021,2025_May_08_1150,ConditionRich,2021.2.3,59.959083921175505,
79.0,79.75,36,0.75,Stimuli/P009/things_pelican_05s.jpg,0,0,0.0,0,151,151,151,,,,,,,,,,,,,79.00333619999947,0.0033361999994667713,None,111.50375309999981,111.50375309999981,111.50375309999981,111.50375309999981,111.50375309999981,111.50375309999981,111.50375309999981,111.50375309999981,111.50375309999981,111.50375309999981,,003,P021,2025_May_08_1150,ConditionRich,2021.2.3,59.959083921175505,
79.75,80.0,41,0.0,Stimuli/Blank.png,0,0,0.0,0,152,152,152,,,,,,,,,,,,,79.7531801999994,0.003180199999405886,None,112.25442250000015,112.25442250000015,112.25442250000015,112.25442250000015,112.25442250000015,112.25442250000015,112.25442250000015,112.25442250000015,112.25442250000015,112.25442250000015,,003,P021,2025_May_08_1150,ConditionRich,2021.2.3,59.959083921175505,
80.0,80.75,32,0.75,Stimuli/P009/things_hawk_05s.jpg,0,0,0.0,0,153,153,153,,,,,,,,,,,,,80.00392529999954,0.003925299999536946,None,112.50466130000041,112.50466130000041,112.50466130000041,112.50466130000041,112.50466130000041,112.50466130000041,112.50466130000041,112.50466130000041,112.50466130000041,112.50466130000041,,003,P021,2025_May_08_1150,ConditionRich,2021.2.3,59.959083921175505,
80.75,81.0,41,0.0,Stimuli/Blank.png,0,0,0.0,0,154,154,154,,,,,,,,,,,,,80.75452640000003,0.004526400000031572,None,113.25532470000053,113.25532470000053,113.25532470000053,113.25532470000053,113.25532470000053,113.25532470000053,113.25532470000053,113.25532470000053,113.25532470000053,113.25532470000053,,003,P021,2025_May_08_1150,ConditionRich,2021.2.3,59.959083921175505,
81.0,81.75,32,0.75,Stimuli/P009/things_hawk_05s.jpg,0,0,0.0,0,155,155,155,,,,,,,,,,,,,81.00406039999962,0.004060399999616493,None,113.50552830000015,113.50552830000015,113.50552830000015,113.50552830000015,113.50552830000015,113.50552830000015,113.50552830000015,113.50552830000015,113.50552830000015,113.50552830000015,,003,P021,2025_May_08_1150,ConditionRich,2021.2.3,59.959083921175505,
81.75,82.0,41,0.0,Stimuli/Blank.png,0,0,0.0,0,156,156,156,,,,,,,,,,,,,81.75750069999958,0.007500699999582139,None,114.27289259999998,114.27289259999998,114.27289259999998,114.27289259999998,114.27289259999998,114.27289259999998,114.27289259999998,114.27289259999998,114.27289259999998,114.27289259999998,,003,P021,2025_May_08_1150,ConditionRich,2021.2.3,59.959083921175505,
82.0,82.75,32,0.75,Stimuli/P009/things_hawk_05s.jpg,0,0,0.0,0,157,157,157,,,,,,,,,,,,,82.02311049999935,0.023110499999347667,None,114.53978150000057,114.53978150000057,114.53978150000057,114.53978150000057,114.53978150000057,114.53978150000057,114.53978150000057,114.53978150000057,114.53978150000057,114.53978150000057,,003,P021,2025_May_08_1150,ConditionRich,2021.2.3,59.959083921175505,
82.75,83.0,41,0.0,Stimuli/Blank.png,0,0,0.0,0,158,158,158,,,,,,,,,,,,,82.77362449999964,0.023624499999641557,None,115.27378990000034,115.27378990000034,115.27378990000034,115.27378990000034,115.27378990000034,115.27378990000034,115.27378990000034,115.27378990000034,115.27378990000034,115.27378990000034,,003,P021,2025_May_08_1150,ConditionRich,2021.2.3,59.959083921175505,
83.0,83.75,32,0.75,Stimuli/P009/things_hawk_05s.jpg,0,0,0.0,0,159,159,159,,,,,,,,,,,,,83.00586879999992,0.005868799999916519,None,115.50729800000045,115.50729800000045,115.50729800000045,115.50729800000045,115.50729800000045,115.50729800000045,115.50729800000045,115.50729800000045,115.50729800000045,115.50729800000045,,003,P021,2025_May_08_1150,ConditionRich,2021.2.3,59.959083921175505,
83.75,84.0,41,0.0,Stimuli/Blank.png,0,0,0.0,0,160,160,160,,,,,,,,,,,,,83.7587655999996,0.00876559999960591,None,116.27465639999991,116.27465639999991,116.27465639999991,116.27465639999991,116.27465639999991,116.27465639999991,116.27465639999991,116.27465639999991,116.27465639999991,116.27465639999991,,003,P021,2025_May_08_1150,ConditionRich,2021.2.3,59.959083921175505,
84.0,100.0,0,0.0,Stimuli/Blank.png,1,6,6.75,0,161,161,161,,,,,,,,,,,,,84.02397259999998,0.02397259999997914,1,116.52487060000021,116.52487060000021,116.52487060000021,116.52487060000021,116.52487060000021,116.52487060000021,122.51349040000059,123.26415259999976,116.52487060000021,116.52487060000021,6.717515899999853,003,P021,2025_May_08_1150,ConditionRich,2021.2.3,59.959083921175505,
100.0,100.75,33,0.75,Stimuli/P009/things_lizard_05n.jpg,0,0,0.0,0,162,162,162,,,,,,,,,,,,,100.00427820000004,0.004278200000044308,None,132.50564720000057,132.50564720000057,132.50564720000057,132.50564720000057,132.50564720000057,132.50564720000057,132.50564720000057,132.50564720000057,132.50564720000057,132.50564720000057,,003,P021,2025_May_08_1150,ConditionRich,2021.2.3,59.959083921175505,
100.75,101.0,41,0.0,Stimuli/Blank.png,0,0,0.0,0,163,163,163,,,,,,,,,,,,,100.75484340000003,0.004843400000027032,None,133.25631520000024,133.25631520000024,133.25631520000024,133.25631520000024,133.25631520000024,133.25631520000024,133.25631520000024,133.25631520000024,133.25631520000024,133.25631520000024,,003,P021,2025_May_08_1150,ConditionRich,2021.2.3,59.959083921175505,
101.0,101.75,33,0.75,Stimuli/P009/things_lizard_05n.jpg,0,0,0.0,0,164,164,164,,,,,,,,,,,,,101.00515949999954,0.00515949999953591,None,133.50653520000014,133.50653520000014,133.50653520000014,133.50653520000014,133.50653520000014,133.50653520000014,133.50653520000014,133.50653520000014,133.50653520000014,133.50653520000014,,003,P021,2025_May_08_1150,ConditionRich,2021.2.3,59.959083921175505,
101.75,102.0,41,0.0,Stimuli/Blank.png,0,0,0.0,0,165,165,165,,,,,,,,,,,,,101.75576699999965,0.005766999999650579,None,134.2572041000003,134.2572041000003,134.2572041000003,134.2572041000003,134.2572041000003,134.2572041000003,134.2572041000003,134.2572041000003,134.2572041000003,134.2572041000003,,003,P021,2025_May_08_1150,ConditionRich,2021.2.3,59.959083921175505,
102.0,102.75,33,0.75,Stimuli/P009/things_lizard_05n.jpg,0,0,0.0,0,166,166,166,,,,,,,,,,,,,102.00661479999962,0.006614799999624665,None,134.5241186000003,134.5241186000003,134.5241186000003,134.5241186000003,134.5241186000003,134.5241186000003,134.5241186000003,134.5241186000003,134.5241186000003,134.5241186000003,,003,P021,2025_May_08_1150,ConditionRich,2021.2.3,59.959083921175505,
102.75,103.0,41,0.0,Stimuli/Blank.png,0,0,0.0,0,167,167,167,,,,,,,,,,,,,102.77456480000001,0.02456480000000738,None,135.27478130000054,135.27478130000054,135.27478130000054,135.27478130000054,135.27478130000054,135.27478130000054,135.27478130000054,135.27478130000054,135.27478130000054,135.27478130000054,,003,P021,2025_May_08_1150,ConditionRich,2021.2.3,59.959083921175505,
103.0,103.75,33,0.75,Stimuli/P009/things_lizard_05n.jpg,1,0,0.75,0,168,168,168,,,,,,,,,,,,,103.00960769999983,0.00960769999983313,None,135.5249958000004,135.5249958000004,135.5249958000004,135.5249958000004,135.5249958000004,135.5249958000004,135.5249958000004,136.2589668999999,135.5249958000004,135.5249958000004,,003,P021,2025_May_08_1150,ConditionRich,2021.2.3,59.959083921175505,
103.75,104.0,41,0.0,Stimuli/Blank.png,0,0,0.0,0,169,169,169,,,,,,,,,,,,,103.77456949999942,0.02456949999941571,None,136.2756870000003,136.2756870000003,136.2756870000003,136.2756870000003,136.2756870000003,136.2756870000003,136.2756870000003,136.2756870000003,136.2756870000003,136.2756870000003,,003,P021,2025_May_08_1150,ConditionRich,2021.2.3,59.959083921175505,
104.0,104.75,2,0.75,Stimuli/P009/sun_acvloibbxiqpiwnv.jpg,0,0,0.0,0,170,170,170,,,,,,,,,,,,,104.00882439999987,0.008824399999866728,1,136.52591960000063,136.52591960000063,136.52591960000063,136.52591960000063,136.52591960000063,136.52591960000063,136.52591960000063,136.52591960000063,136.52591960000063,136.52591960000063,0.04933249999976397,003,P021,2025_May_08_1150,ConditionRich,2021.2.3,59.959083921175505,
104.75,105.0,41,0.0,Stimuli/Blank.png,0,0,0.0,0,171,171,171,,,,,,,,,,,,,104.7751946999997,0.025194699999701697,None,137.27653720000035,137.27653720000035,137.27653720000035,137.27653720000035,137.27653720000035,137.27653720000035,137.27653720000035,137.27653720000035,137.27653720000035,137.27653720000035,,003,P021,2025_May_08_1150,ConditionRich,2021.2.3,59.959083921175505,
105.0,105.75,2,0.75,Stimuli/P009/sun_acvloibbxiqpiwnv.jpg,0,0,0.0,0,172,172,172,,,,,,,,,,,,,105.01007190000018,0.010071900000184542,None,137.51022199999989,137.51022199999989,137.51022199999989,137.51022199999989,137.51022199999989,137.51022199999989,137.51022199999989,137.51022199999989,137.51022199999989,137.51022199999989,,003,P021,2025_May_08_1150,ConditionRich,2021.2.3,59.959083921175505,
105.75,106.0,41,0.0,Stimuli/Blank.png,0,0,0.0,0,173,173,173,,,,,,,,,,,,,105.75931330000003,0.009313300000030722,None,138.26074010000048,138.26074010000048,138.26074010000048,138.26074010000048,138.26074010000048,138.26074010000048,138.26074010000048,138.26074010000048,138.26074010000048,138.26074010000048,,003,P021,2025_May_08_1150,ConditionRich,2021.2.3,59.959083921175505,
106.0,106.75,2,0.75,Stimuli/P009/sun_acvloibbxiqpiwnv.jpg,0,0,0.0,0,174,174,174,,,,,,,,,,,,,106.01042859999961,0.010428599999613652,None,138.51097930000014,138.51097930000014,138.51097930000014,138.51097930000014,138.51097930000014,138.51097930000014,138.51097930000014,138.51097930000014,138.51097930000014,138.51097930000014,,003,P021,2025_May_08_1150,ConditionRich,2021.2.3,59.959083921175505,
106.75,107.0,41,0.0,Stimuli/Blank.png,0,0,0.0,0,175,175,175,,,,,,,,,,,,,106.76037459999952,0.010374599999522616,None,139.26163240000005,139.26163240000005,139.26163240000005,139.26163240000005,139.26163240000005,139.26163240000005,139.26163240000005,139.26163240000005,139.26163240000005,139.26163240000005,,003,P021,2025_May_08_1150,ConditionRich,2021.2.3,59.959083921175505,
107.0,107.75,2,0.75,Stimuli/P009/sun_acvloibbxiqpiwnv.jpg,0,0,0.0,0,176,176,176,,,,,,,,,,,,,107.01129469999978,0.011294699999780278,None,139.52853090000008,139.52853090000008,139.52853090000008,139.52853090000008,139.52853090000008,139.52853090000008,139.52853090000008,139.52853090000008,139.52853090000008,139.52853090000008,,003,P021,2025_May_08_1150,ConditionRich,2021.2.3,59.959083921175505,
107.75,108.0,41,0.0,Stimuli/Blank.png,0,0,0.0,0,177,177,177,,,,,,,,,,,,,107.77777619999961,0.027776199999607343,None,140.27923060000012,140.27923060000012,140.27923060000012,140.27923060000012,140.27923060000012,140.27923060000012,140.27923060000012,140.27923060000012,140.27923060000012,140.27923060000012,,003,P021,2025_May_08_1150,ConditionRich,2021.2.3,59.959083921175505,
108.0,108.75,3,0.75,Stimuli/P009/sun_aewgwsmvsgzleqhw.jpg,0,0,0.0,0,178,178,178,,,,,,,,,,,,,108.01135189999968,0.011351899999681336,None,140.52941360000023,140.52941360000023,140.52941360000023,140.52941360000023,140.52941360000023,140.52941360000023,140.52941360000023,140.52941360000023,140.52941360000023,140.52941360000023,,003,P021,2025_May_08_1150,ConditionRich,2021.2.3,59.959083921175505,
108.75,109.0,41,0.0,Stimuli/Blank.png,0,0,0.0,0,179,179,179,,,,,,,,,,,,,108.77926049999951,0.029260499999509193,None,141.28007460000026,141.28007460000026,141.28007460000026,141.28007460000026,141.28007460000026,141.28007460000026,141.28007460000026,141.28007460000026,141.28007460000026,141.28007460000026,,003,P021,2025_May_08_1150,ConditionRich,2021.2.3,59.959083921175505,
109.0,109.75,3,0.75,Stimuli/P009/sun_aewgwsmvsgzleqhw.jpg,0,0,0.0,0,180,180,180,,,,,,,,,,,,,109.01328430000012,0.01328430000012304,None,141.53030500000023,141.53030500000023,141.53030500000023,141.53030500000023,141.53030500000023,141.53030500000023,141.53030500000023,141.53030500000023,141.53030500000023,141.53030500000023,,003,P021,2025_May_08_1150,ConditionRich,2021.2.3,59.959083921175505,
109.75,110.0,41,0.0,Stimuli/Blank.png,0,0,0.0,0,181,181,181,,,,,,,,,,,,,109.78009469999961,0.030094699999608565,None,142.2809541000006,142.2809541000006,142.2809541000006,142.2809541000006,142.2809541000006,142.2809541000006,142.2809541000006,142.2809541000006,142.2809541000006,142.2809541000006,,003,P021,2025_May_08_1150,ConditionRich,2021.2.3,59.959083921175505,
110.0,110.75,3,0.75,Stimuli/P009/sun_aewgwsmvsgzleqhw.jpg,0,0,0.0,0,182,182,182,,,,,,,,,,,,,110.01368269999966,0.013682699999662873,None,142.51449690000027,142.51449690000027,142.51449690000027,142.51449690000027,142.51449690000027,142.51449690000027,142.51449690000027,142.51449690000027,142.51449690000027,142.51449690000027,,003,P021,2025_May_08_1150,ConditionRich,2021.2.3,59.959083921175505,
110.75,111.0,41,0.0,Stimuli/Blank.png,0,0,0.0,0,183,183,183,,,,,,,,,,,,,110.76442099999986,0.014420999999856576,None,143.2651633000005,143.2651633000005,143.2651633000005,143.2651633000005,143.2651633000005,143.2651633000005,143.2651633000005,143.2651633000005,143.2651633000005,143.2651633000005,,003,P021,2025_May_08_1150,ConditionRich,2021.2.3,59.959083921175505,
111.0,111.75,3,0.75,Stimuli/P009/sun_aewgwsmvsgzleqhw.jpg,0,0,0.0,0,184,184,184,,,,,,,,,,,,,111.01410339999984,0.014103399999839894,None,143.51539690000027,143.51539690000027,143.51539690000027,143.51539690000027,143.51539690000027,143.51539690000027,143.51539690000027,143.51539690000027,143.51539690000027,143.51539690000027,,003,P021,2025_May_08_1150,ConditionRich,2021.2.3,59.959083921175505,
111.75,112.0,41,0.0,Stimuli/Blank.png,0,0,0.0,0,185,185,185,,,,,,,,,,,,,111.76550809999935,0.015508099999351543,None,144.26607680000052,144.26607680000052,144.26607680000052,144.26607680000052,144.26607680000052,144.26607680000052,144.26607680000052,144.26607680000052,144.26607680000052,144.26607680000052,,003,P021,2025_May_08_1150,ConditionRich,2021.2.3,59.959083921175505,
112.0,112.75,13,0.75,Stimuli/P009/sun_bjimvgwadfodioes.jpg,0,0,0.0,0,186,186,186,,,,,,,,,,,,,111.99890179999966,-0.001098200000342331,None,144.49964900000032,144.49964900000032,144.49964900000032,144.49964900000032,144.49964900000032,144.49964900000032,144.49964900000032,144.49964900000032,144.49964900000032,144.49964900000032,,003,P021,2025_May_08_1150,ConditionRich,2021.2.3,59.959083921175505,
112.75,113.0,41,0.0,Stimuli/Blank.png,0,0,0.0,0,187,187,187,,,,,,,,,,,,,112.74949269999979,-0.0005073000002084882,None,145.25025350000033,145.25025350000033,145.25025350000033,145.25025350000033,145.25025350000033,145.25025350000033,145.25025350000033,145.25025350000033,145.25025350000033,145.25025350000033,,003,P021,2025_May_08_1150,ConditionRich,2021.2.3,59.959083921175505,
113.0,113.75,13,0.75,Stimuli/P009/sun_bjimvgwadfodioes.jpg,0,0,0.0,0,188,188,188,,,,,,,,,,,,,112.99903749999976,-0.0009625000002415618,None,145.50048250000054,145.50048250000054,145.50048250000054,145.50048250000054,145.50048250000054,145.50048250000054,145.50048250000054,145.50048250000054,145.50048250000054,145.50048250000054,,003,P021,2025_May_08_1150,ConditionRich,2021.2.3,59.959083921175505,
113.75,114.0,41,0.0,Stimuli/Blank.png,0,0,0.0,0,189,189,189,,,,,,,,,,,,,113.75009030000001,9.030000001075678e-05,None,146.2511353,146.2511353,146.2511353,146.2511353,146.2511353,146.2511353,146.2511353,146.2511353,146.2511353,146.2511353,,003,P021,2025_May_08_1150,ConditionRich,2021.2.3,59.959083921175505,
114.0,114.75,13,0.75,Stimuli/P009/sun_bjimvgwadfodioes.jpg,0,0,0.0,0,190,190,190,,,,,,,,,,,,,113.99999059999936,-9.40000063565094e-06,None,146.50135130000035,146.50135130000035,146.50135130000035,146.50135130000035,146.50135130000035,146.50135130000035,146.50135130000035,146.50135130000035,146.50135130000035,146.50135130000035,,003,P021,2025_May_08_1150,ConditionRich,2021.2.3,59.959083921175505,
114.75,115.0,41,0.0,Stimuli/Blank.png,0,0,0.0,0,191,191,191,,,,,,,,,,,,,114.75059859999965,0.000598599999648286,None,147.25201650000054,147.25201650000054,147.25201650000054,147.25201650000054,147.25201650000054,147.25201650000054,147.25201650000054,147.25201650000054,147.25201650000054,147.25201650000054,,003,P021,2025_May_08_1150,ConditionRich,2021.2.3,59.959083921175505,
115.0,115.75,13,0.75,Stimuli/P009/sun_bjimvgwadfodioes.jpg,0,0,0.0,0,192,192,192,,,,,,,,,,,,,115.00084419999985,0.0008441999998467509,None,147.50223480000022,147.50223480000022,147.50223480000022,147.50223480000022,147.50223480000022,147.50223480000022,147.50223480000022,147.50223480000022,147.50223480000022,147.50223480000022,,003,P021,2025_May_08_1150,ConditionRich,2021.2.3,59.959083921175505,
115.75,116.0,41,0.0,Stimuli/Blank.png,0,0,0.0,0,193,193,193,,,,,,,,,,,,,115.75195309999981,0.0019530999998096377,None,148.2529026000002,148.2529026000002,148.2529026000002,148.2529026000002,148.2529026000002,148.2529026000002,148.2529026000002,148.2529026000002,148.2529026000002,148.2529026000002,,003,P021,2025_May_08_1150,ConditionRich,2021.2.3,59.959083921175505,
116.0,116.75,24,0.75,Stimuli/P009/things_cigar_05n.jpg,0,0,0.0,0,194,194,194,,,,,,,,,,,,,116.00228069999957,0.0022806999995736987,None,148.5031641000005,148.5031641000005,148.5031641000005,148.5031641000005,148.5031641000005,148.5031641000005,148.5031641000005,148.5031641000005,148.5031641000005,148.5031641000005,,003,P021,2025_May_08_1150,ConditionRich,2021.2.3,59.959083921175505,
116.75,117.0,41,0.0,Stimuli/Blank.png,0,0,0.0,0,195,195,195,,,,,,,,,,,,,116.75235189999967,0.0023518999996667844,None,149.25380640000003,149.25380640000003,149.25380640000003,149.25380640000003,149.25380640000003,149.25380640000003,149.25380640000003,149.25380640000003,149.25380640000003,149.25380640000003,,003,P021,2025_May_08_1150,ConditionRich,2021.2.3,59.959083921175505,
117.0,117.75,24,0.75,Stimuli/P009/things_cigar_05n.jpg,1,0,0.75,0,196,196,196,,,,,,,,,,,,,117.00431209999988,0.004312099999879138,1,149.52069690000008,149.52069690000008,149.52069690000008,149.52069690000008,149.52069690000008,149.52069690000008,149.52069690000008,150.2379950000004,149.52069690000008,149.52069690000008,0.5225003000005017,003,P021,2025_May_08_1150,ConditionRich,2021.2.3,59.959083921175505,
117.75,118.0,41,0.0,Stimuli/Blank.png,0,0,0.0,0,197,197,197,,,,,,,,,,,,,117.77072789999966,0.020727899999656074,None,150.2713678,150.2713678,150.2713678,150.2713678,150.2713678,150.2713678,150.2713678,150.2713678,150.2713678,150.2713678,,003,P021,2025_May_08_1150,ConditionRich,2021.2.3,59.959083921175505,
118.0,118.75,24,0.75,Stimuli/P009/things_cigar_05n.jpg,0,0,0.0,0,198,198,198,,,,,,,,,,,,,118.00355799999943,0.0035579999994297395,None,150.50489310000012,150.50489310000012,150.50489310000012,150.50489310000012,150.50489310000012,150.50489310000012,150.50489310000012,150.50489310000012,150.50489310000012,150.50489310000012,,003,P021,2025_May_08_1150,ConditionRich,2021.2.3,59.959083921175505,
118.75,119.0,41,0.0,Stimuli/Blank.png,0,0,0.0,0,199,199,199,,,,,,,,,,,,,118.75409589999981,0.004095899999811081,None,151.2555280000006,151.2555280000006,151.2555280000006,151.2555280000006,151.2555280000006,151.2555280000006,151.2555280000006,151.2555280000006,151.2555280000006,151.2555280000006,,003,P021,2025_May_08_1150,ConditionRich,2021.2.3,59.959083921175505,
119.0,119.75,24,0.75,Stimuli/P009/things_cigar_05n.jpg,0,0,0.0,0,200,200,200,,,,,,,,,,,,,119.00507060000018,0.0050706000001810025,None,151.50578170000063,151.50578170000063,151.50578170000063,151.50578170000063,151.50578170000063,151.50578170000063,151.50578170000063,151.50578170000063,151.50578170000063,151.50578170000063,,003,P021,2025_May_08_1150,ConditionRich,2021.2.3,59.959083921175505,
119.75,120.0,41,0.0,Stimuli/Blank.png,0,0,0.0,0,201,201,201,,,,,,,,,,,,,119.7550099,0.0050099000000045635,None,152.25644079999984,152.25644079999984,152.25644079999984,152.25644079999984,152.25644079999984,152.25644079999984,152.25644079999984,152.25644079999984,152.25644079999984,152.25644079999984,,003,P021,2025_May_08_1150,ConditionRich,2021.2.3,59.959083921175505,
120.0,120.75,29,0.75,Stimuli/P009/things_fingerprint_05s.jpg,0,0,0.0,0,202,202,202,,,,,,,,,,,,,120.0053398,0.00533980000000156,None,152.5066665000004,152.5066665000004,152.5066665000004,152.5066665000004,152.5066665000004,152.5066665000004,152.5066665000004,152.5066665000004,152.5066665000004,152.5066665000004,,003,P021,2025_May_08_1150,ConditionRich,2021.2.3,59.959083921175505,
120.75,121.0,41,0.0,Stimuli/Blank.png,0,0,0.0,0,203,203,203,,,,,,,,,,,,,120.75592739999956,0.0059273999995639315,None,153.25733110000056,153.25733110000056,153.25733110000056,153.25733110000056,153.25733110000056,153.25733110000056,153.25733110000056,153.25733110000056,153.25733110000056,153.25733110000056,,003,P021,2025_May_08_1150,ConditionRich,2021.2.3,59.959083921175505,
121.0,121.75,29,0.75,Stimuli/P009/things_fingerprint_05s.jpg,0,0,0.0,0,204,204,204,,,,,,,,,,,,,121.00606329999937,0.00606329999936861,None,153.52423199999976,153.52423199999976,153.52423199999976,153.52423199999976,153.52423199999976,153.52423199999976,153.52423199999976,153.52423199999976,153.52423199999976,153.52423199999976,,003,P021,2025_May_08_1150,ConditionRich,2021.2.3,59.959083921175505,
121.75,122.0,41,0.0,Stimuli/Blank.png,0,0,0.0,0,205,205,205,,,,,,,,,,,,,121.77364789999956,0.02364789999955974,None,154.2748943000006,154.2748943000006,154.2748943000006,154.2748943000006,154.2748943000006,154.2748943000006,154.2748943000006,154.2748943000006,154.2748943000006,154.2748943000006,,003,P021,2025_May_08_1150,ConditionRich,2021.2.3,59.959083921175505,
122.0,122.75,29,0.75,Stimuli/P009/things_fingerprint_05s.jpg,0,0,0.0,0,206,206,206,,,,,,,,,,,,,122.01064700000006,0.01064700000006269,None,154.52525010000045,154.52525010000045,154.52525010000045,154.52525010000045,154.52525010000045,154.52525010000045,154.52525010000045,154.52525010000045,154.52525010000045,154.52525010000045,,003,P021,2025_May_08_1150,ConditionRich,2021.2.3,59.959083921175505,
122.75,123.0,41,0.0,Stimuli/Blank.png,0,0,0.0,0,207,207,207,,,,,,,,,,,,,122.77433380000002,0.024333800000022165,None,155.27580190000026,155.27580190000026,155.27580190000026,155.27580190000026,155.27580190000026,155.27580190000026,155.27580190000026,155.27580190000026,155.27580190000026,155.27580190000026,,003,P021,2025_May_08_1150,ConditionRich,2021.2.3,59.959083921175505,
123.0,123.75,29,0.75,Stimuli/P009/things_fingerprint_05s.jpg,0,0,0.0,0,208,208,208,,,,,,,,,,,,,123.00875349999933,0.008753499999329506,None,155.50979780000034,155.50979780000034,155.50979780000034,155.50979780000034,155.50979780000034,155.50979780000034,155.50979780000034,155.50979780000034,155.50979780000034,155.50979780000034,,003,P021,2025_May_08_1150,ConditionRich,2021.2.3,59.959083921175505,
123.75,124.0,41,0.0,Stimuli/Blank.png,0,0,0.0,0,209,209,209,,,,,,,,,,,,,123.75965769999948,0.009657699999479519,None,156.25998290000007,156.25998290000007,156.25998290000007,156.25998290000007,156.25998290000007,156.25998290000007,156.25998290000007,156.25998290000007,156.25998290000007,156.25998290000007,,003,P021,2025_May_08_1150,ConditionRich,2021.2.3,59.959083921175505,
124.0,124.75,8,0.75,Stimuli/P009/sun_batcnoizlkeiqdtx.jpg,0,0,0.0,0,210,210,210,,,,,,,,,,,,,124.00959429999966,0.009594299999662326,None,156.51019259999975,156.51019259999975,156.51019259999975,156.51019259999975,156.51019259999975,156.51019259999975,156.51019259999975,156.51019259999975,156.51019259999975,156.51019259999975,,003,P021,2025_May_08_1150,ConditionRich,2021.2.3,59.959083921175505,
124.75,125.0,41,0.0,Stimuli/Blank.png,0,0,0.0,0,211,211,211,,,,,,,,,,,,,124.76058939999984,0.010589399999844318,None,157.26086900000064,157.26086900000064,157.26086900000064,157.26086900000064,157.26086900000064,157.26086900000064,157.26086900000064,157.26086900000064,157.26086900000064,157.26086900000064,,003,P021,2025_May_08_1150,ConditionRich,2021.2.3,59.959083921175505,
125.0,125.75,8,0.75,Stimuli/P009/sun_batcnoizlkeiqdtx.jpg,0,0,0.0,0,212,212,212,,,,,,,,,,,,,125.01021069999933,0.010210699999333883,None,157.52784380000048,157.52784380000048,157.52784380000048,157.52784380000048,157.52784380000048,157.52784380000048,157.52784380000048,157.52784380000048,157.52784380000048,157.52784380000048,,003,P021,2025_May_08_1150,ConditionRich,2021.2.3,59.959083921175505,
125.75,126.0,41,0.0,Stimuli/Blank.png,0,0,0.0,0,213,213,213,,,,,,,,,,,,,125.77985989999979,0.029859899999792106,None,158.29511900000034,158.29511900000034,158.29511900000034,158.29511900000034,158.29511900000034,158.29511900000034,158.29511900000034,158.29511900000034,158.29511900000034,158.29511900000034,,003,P021,2025_May_08_1150,ConditionRich,2021.2.3,59.959083921175505,
126.0,126.75,8,0.75,Stimuli/P009/sun_batcnoizlkeiqdtx.jpg,0,0,0.0,0,214,214,214,,,,,,,,,,,,,126.02799789999972,0.027997899999718356,None,158.5453361,158.5453361,158.5453361,158.5453361,158.5453361,158.5453361,158.5453361,158.5453361,158.5453361,158.5453361,,003,P021,2025_May_08_1150,ConditionRich,2021.2.3,59.959083921175505,
126.75,127.0,41,0.0,Stimuli/Blank.png,0,0,0.0,0,215,215,215,,,,,,,,,,,,,126.77918429999954,0.029184299999542418,None,159.27933389999998,159.27933389999998,159.27933389999998,159.27933389999998,159.27933389999998,159.27933389999998,159.27933389999998,159.27933389999998,159.27933389999998,159.27933389999998,,003,P021,2025_May_08_1150,ConditionRich,2021.2.3,59.959083921175505,
127.0,127.75,8,0.75,Stimuli/P009/sun_batcnoizlkeiqdtx.jpg,0,0,0.0,0,216,216,216,,,,,,,,,,,,,127.01214399999935,0.012143999999352673,None,159.5128536000002,159.5128536000002,159.5128536000002,159.5128536000002,159.5128536000002,159.5128536000002,159.5128536000002,159.5128536000002,159.5128536000002,159.5128536000002,,003,P021,2025_May_08_1150,ConditionRich,2021.2.3,59.959083921175505,
127.75,128.0,41,0.0,Stimuli/Blank.png,0,0,0.0,0,217,217,217,,,,,,,,,,,,,127.76452919999974,0.01452919999974256,None,160.28020790000028,160.28020790000028,160.28020790000028,160.28020790000028,160.28020790000028,160.28020790000028,160.28020790000028,160.28020790000028,160.28020790000028,160.28020790000028,,003,P021,2025_May_08_1150,ConditionRich,2021.2.3,59.959083921175505,
128.0,128.75,39,0.75,Stimuli/P009/things_tiara_05s.jpg,0,0,0.0,0,218,218,218,,,,,,,,,,,,,128.02904969999963,0.02904969999963214,None,160.53042370000003,160.53042370000003,160.53042370000003,160.53042370000003,160.53042370000003,160.53042370000003,160.53042370000003,160.53042370000003,160.53042370000003,160.53042370000003,,003,P021,2025_May_08_1150,ConditionRich,2021.2.3,59.959083921175505,
128.75,129.0,41,0.0,Stimuli/Blank.png,0,0,0.0,0,219,219,219,,,,,,,,,,,,,128.76437609999994,0.014376099999935832,None,161.26440700000057,161.26440700000057,161.26440700000057,161.26440700000057,161.26440700000057,161.26440700000057,161.26440700000057,161.26440700000057,161.26440700000057,161.26440700000057,,003,P021,2025_May_08_1150,ConditionRich,2021.2.3,59.959083921175505,
129.0,129.75,39,0.75,Stimuli/P009/things_tiara_05s.jpg,0,0,0.0,0,220,220,220,,,,,,,,,,,,,129.01320099999975,0.013200999999753549,None,161.51461650000056,161.51461650000056,161.51461650000056,161.51461650000056,161.51461650000056,161.51461650000056,161.51461650000056,161.51461650000056,161.51461650000056,161.51461650000056,,003,P021,2025_May_08_1150,ConditionRich,2021.2.3,59.959083921175505,
129.75,130.0,41,0.0,Stimuli/Blank.png,0,0,0.0,0,221,221,221,,,,,,,,,,,,,129.76400680000006,0.014006800000061048,None,162.26529449999998,162.26529449999998,162.26529449999998,162.26529449999998,162.26529449999998,162.26529449999998,162.26529449999998,162.26529449999998,162.26529449999998,162.26529449999998,,003,P021,2025_May_08_1150,ConditionRich,2021.2.3,59.959083921175505,
130.0,130.75,39,0.75,Stimuli/P009/things_tiara_05s.jpg,0,0,0.0,0,222,222,222,,,,,,,,,,,,,130.0145795999997,0.01457959999970626,None,162.5155179000003,162.5155179000003,162.5155179000003,162.5155179000003,162.5155179000003,162.5155179000003,162.5155179000003,162.5155179000003,162.5155179000003,162.5155179000003,,003,P021,2025_May_08_1150,ConditionRich,2021.2.3,59.959083921175505,
130.75,131.0,41,0.0,Stimuli/Blank.png,0,0,0.0,0,223,223,223,,,,,,,,,,,,,130.76490569999987,0.014905699999872013,None,163.26621049999994,163.26621049999994,163.26621049999994,163.26621049999994,163.26621049999994,163.26621049999994,163.26621049999994,163.26621049999994,163.26621049999994,163.26621049999994,,003,P021,2025_May_08_1150,ConditionRich,2021.2.3,59.959083921175505,
131.0,131.75,39,0.75,Stimuli/P009/things_tiara_05s.jpg,0,0,0.0,0,224,224,224,,,,,,,,,,,,,131.01497849999942,0.014978499999415362,None,163.5163905999998,163.5163905999998,163.5163905999998,163.5163905999998,163.5163905999998,163.5163905999998,163.5163905999998,163.5163905999998,163.5163905999998,163.5163905999998,,003,P021,2025_May_08_1150,ConditionRich,2021.2.3,59.959083921175505,
131.75,132.0,41,0.0,Stimuli/Blank.png,0,0,0.0,0,225,225,225,,,,,,,,,,,,,131.76557709999997,0.015577099999973143,None,164.2670552999998,164.2670552999998,164.2670552999998,164.2670552999998,164.2670552999998,164.2670552999998,164.2670552999998,164.2670552999998,164.2670552999998,164.2670552999998,,003,P021,2025_May_08_1150,ConditionRich,2021.2.3,59.959083921175505,
132.0,132.75,25,0.75,Stimuli/P009/things_clothespin_05s.jpg,0,0,0.0,0,226,226,226,,,,,,,,,,,,,132.00031260000014,0.00031260000014299294,None,164.51728170000024,164.51728170000024,164.51728170000024,164.51728170000024,164.51728170000024,164.51728170000024,164.51728170000024,164.51728170000024,164.51728170000024,164.51728170000024,,003,P021,2025_May_08_1150,ConditionRich,2021.2.3,59.959083921175505,
132.75,133.0,41,0.0,Stimuli/Blank.png,0,0,0.0,0,227,227,227,,,,,,,,,,,,,132.76860169999964,0.018601699999635457,None,165.28463480000028,165.28463480000028,165.28463480000028,165.28463480000028,165.28463480000028,165.28463480000028,165.28463480000028,165.28463480000028,165.28463480000028,165.28463480000028,,003,P021,2025_May_08_1150,ConditionRich,2021.2.3,59.959083921175505,
133.0,133.75,25,0.75,Stimuli/P009/things_clothespin_05s.jpg,0,0,0.0,0,228,228,228,,,,,,,,,,,,,133.0180118999997,0.018011899999692105,None,165.53484639999988,165.53484639999988,165.53484639999988,165.53484639999988,165.53484639999988,165.53484639999988,165.53484639999988,165.53484639999988,165.53484639999988,165.53484639999988,,003,P021,2025_May_08_1150,ConditionRich,2021.2.3,59.959083921175505,
133.75,134.0,41,0.0,Stimuli/Blank.png,0,0,0.0,0,229,229,229,,,,,,,,,,,,,133.76833780000015,0.018337800000153948,None,166.26882850000038,166.26882850000038,166.26882850000038,166.26882850000038,166.26882850000038,166.26882850000038,166.26882850000038,166.26882850000038,166.26882850000038,166.26882850000038,,003,P021,2025_May_08_1150,ConditionRich,2021.2.3,59.959083921175505,
134.0,134.75,25,0.75,Stimuli/P009/things_clothespin_05s.jpg,0,0,0.0,0,230,230,230,,,,,,,,,,,,,134.0039614999996,0.003961499999604712,None,166.51905460000035,166.51905460000035,166.51905460000035,166.51905460000035,166.51905460000035,166.51905460000035,166.51905460000035,166.51905460000035,166.51905460000035,166.51905460000035,,003,P021,2025_May_08_1150,ConditionRich,2021.2.3,59.959083921175505,
134.75,135.0,41,0.0,Stimuli/Blank.png,0,0,0.0,0,231,231,231,,,,,,,,,,,,,134.76959389999956,0.01959389999956329,None,167.26971839999987,167.26971839999987,167.26971839999987,167.26971839999987,167.26971839999987,167.26971839999987,167.26971839999987,167.26971839999987,167.26971839999987,167.26971839999987,,003,P021,2025_May_08_1150,ConditionRich,2021.2.3,59.959083921175505,
135.0,135.75,25,0.75,Stimuli/P009/things_clothespin_05s.jpg,0,0,0.0,0,232,232,232,,,,,,,,,,,,,135.0031481999995,0.0031481999994866783,None,167.51992849999988,167.51992849999988,167.51992849999988,167.51992849999988,167.51992849999988,167.51992849999988,167.51992849999988,167.51992849999988,167.51992849999988,167.51992849999988,,003,P021,2025_May_08_1150,ConditionRich,2021.2.3,59.959083921175505,
135.75,136.0,41,0.0,Stimuli/Blank.png,0,0,0.0,0,233,233,233,,,,,,,,,,,,,135.76991420000013,0.019914200000130222,None,168.27059740000004,168.27059740000004,168.27059740000004,168.27059740000004,168.27059740000004,168.27059740000004,168.27059740000004,168.27059740000004,168.27059740000004,168.27059740000004,,003,P021,2025_May_08_1150,ConditionRich,2021.2.3,59.959083921175505,
136.0,136.75,22,0.75,Stimuli/P009/things_butterfly_05s.jpg,0,0,0.0,0,234,234,234,,,,,,,,,,,,,136.00334930000008,0.003349300000081712,None,168.50414,168.50414,168.50414,168.50414,168.50414,168.50414,168.50414,168.50414,168.50414,168.50414,,003,P021,2025_May_08_1150,ConditionRich,2021.2.3,59.959083921175505,
136.75,137.0,41,0.0,Stimuli/Blank.png,0,0,0.0,0,235,235,235,,,,,,,,,,,,,136.7542494999998,0.004249499999787076,None,169.25479280000036,169.25479280000036,169.25479280000036,169.25479280000036,169.25479280000036,169.25479280000036,169.25479280000036,169.25479280000036,169.25479280000036,169.25479280000036,,003,P021,2025_May_08_1150,ConditionRich,2021.2.3,59.959083921175505,
137.0,137.75,22,0.75,Stimuli/P009/things_butterfly_05s.jpg,0,0,0.0,0,236,236,236,,,,,,,,,,,,,137.0042437000002,0.004243700000188255,None,169.52172599999994,169.52172599999994,169.52172599999994,169.52172599999994,169.52172599999994,169.52172599999994,169.52172599999994,169.52172599999994,169.52172599999994,169.52172599999994,,003,P021,2025_May_08_1150,ConditionRich,2021.2.3,59.959083921175505,
137.75,138.0,41,0.0,Stimuli/Blank.png,0,0,0.0,0,237,237,237,,,,,,,,,,,,,137.77095000000008,0.0209500000000844,None,170.2723635000002,170.2723635000002,170.2723635000002,170.2723635000002,170.2723635000002,170.2723635000002,170.2723635000002,170.2723635000002,170.2723635000002,170.2723635000002,,003,P021,2025_May_08_1150,ConditionRich,2021.2.3,59.959083921175505,
138.0,138.75,22,0.75,Stimuli/P009/things_butterfly_05s.jpg,0,0,0.0,0,238,238,238,,,,,,,,,,,,,138.00463579999996,0.00463579999996,None,170.5059081999998,170.5059081999998,170.5059081999998,170.5059081999998,170.5059081999998,170.5059081999998,170.5059081999998,170.5059081999998,170.5059081999998,170.5059081999998,,003,P021,2025_May_08_1150,ConditionRich,2021.2.3,59.959083921175505,
138.75,139.0,41,0.0,Stimuli/Blank.png,0,0,0.0,0,239,239,239,,,,,,,,,,,,,138.75608419999935,0.0060841999993499485,None,171.25656660000004,171.25656660000004,171.25656660000004,171.25656660000004,171.25656660000004,171.25656660000004,171.25656660000004,171.25656660000004,171.25656660000004,171.25656660000004,,003,P021,2025_May_08_1150,ConditionRich,2021.2.3,59.959083921175505,
139.0,139.75,22,0.75,Stimuli/P009/things_butterfly_05s.jpg,0,0,0.0,0,240,240,240,,,,,,,,,,,,,139.00623489999998,0.00623489999998128,None,171.52347830000053,171.52347830000053,171.52347830000053,171.52347830000053,171.52347830000053,171.52347830000053,171.52347830000053,171.52347830000053,171.52347830000053,171.52347830000053,,003,P021,2025_May_08_1150,ConditionRich,2021.2.3,59.959083921175505,
139.75,140.0,41,0.0,Stimuli/Blank.png,0,0,0.0,0,241,241,241,,,,,,,,,,,,,139.7729006999998,0.02290069999980915,None,172.2741463000002,172.2741463000002,172.2741463000002,172.2741463000002,172.2741463000002,172.2741463000002,172.2741463000002,172.2741463000002,172.2741463000002,172.2741463000002,,003,P021,2025_May_08_1150,ConditionRich,2021.2.3,59.959083921175505,
140.0,140.75,7,0.75,Stimuli/P009/sun_apiogxmvvzfmtsmj.jpg,0,0,0.0,0,242,242,242,,,,,,,,,,,,,140.0062951,0.006295099999988452,None,172.52437499999996,172.52437499999996,172.52437499999996,172.52437499999996,172.52437499999996,172.52437499999996,172.52437499999996,172.52437499999996,172.52437499999996,172.52437499999996,,003,P021,2025_May_08_1150,ConditionRich,2021.2.3,59.959083921175505,
140.75,141.0,41,0.0,Stimuli/Blank.png,0,0,0.0,0,243,243,243,,,,,,,,,,,,,140.77448639999966,0.024486399999659625,None,173.27503930000057,173.27503930000057,173.27503930000057,173.27503930000057,173.27503930000057,173.27503930000057,173.27503930000057,173.27503930000057,173.27503930000057,173.27503930000057,,003,P021,2025_May_08_1150,ConditionRich,2021.2.3,59.959083921175505,
141.0,141.75,7,0.75,Stimuli/P009/sun_apiogxmvvzfmtsmj.jpg,0,0,0.0,0,244,244,244,,,,,,,,,,,,,141.00787929999933,0.007879299999331124,None,173.5252332,173.5252332,173.5252332,173.5252332,173.5252332,173.5252332,173.5252332,173.5252332,173.5252332,173.5252332,,003,P021,2025_May_08_1150,ConditionRich,2021.2.3,59.959083921175505,
141.75,142.0,41,0.0,Stimuli/Blank.png,0,0,0.0,0,245,245,245,,,,,,,,,,,,,141.77457229999982,0.024572299999817915,None,174.2759033000002,174.2759033000002,174.2759033000002,174.2759033000002,174.2759033000002,174.2759033000002,174.2759033000002,174.2759033000002,174.2759033000002,174.2759033000002,,003,P021,2025_May_08_1150,ConditionRich,2021.2.3,59.959083921175505,
142.0,142.75,7,0.75,Stimuli/P009/sun_apiogxmvvzfmtsmj.jpg,0,0,0.0,0,246,246,246,,,,,,,,,,,,,142.0096655999996,0.009665599999607366,None,174.5261390000005,174.5261390000005,174.5261390000005,174.5261390000005,174.5261390000005,174.5261390000005,174.5261390000005,174.5261390000005,174.5261390000005,174.5261390000005,,003,P021,2025_May_08_1150,ConditionRich,2021.2.3,59.959083921175505,
142.75,143.0,41,0.0,Stimuli/Blank.png,0,0,0.0,0,247,247,247,,,,,,,,,,,,,142.77534399999968,0.02534399999967718,None,175.27678130000004,175.27678130000004,175.27678130000004,175.27678130000004,175.27678130000004,175.27678130000004,175.27678130000004,175.27678130000004,175.27678130000004,175.27678130000004,,003,P021,2025_May_08_1150,ConditionRich,2021.2.3,59.959083921175505,
143.0,143.75,7,0.75,Stimuli/P009/sun_apiogxmvvzfmtsmj.jpg,0,0,0.0,0,248,248,248,,,,,,,,,,,,,143.00892419999946,0.008924199999455595,None,175.51032660000055,175.51032660000055,175.51032660000055,175.51032660000055,175.51032660000055,175.51032660000055,175.51032660000055,175.51032660000055,175.51032660000055,175.51032660000055,,003,P021,2025_May_08_1150,ConditionRich,2021.2.3,59.959083921175505,
143.75,144.0,41,0.0,Stimuli/Blank.png,0,0,0.0,0,249,249,249,,,,,,,,,,,,,143.7596954999999,0.009695499999907042,None,176.2609951000004,176.2609951000004,176.2609951000004,176.2609951000004,176.2609951000004,176.2609951000004,176.2609951000004,176.2609951000004,176.2609951000004,176.2609951000004,,003,P021,2025_May_08_1150,ConditionRich,2021.2.3,59.959083921175505,
144.0,144.75,35,0.75,Stimuli/P009/things_mushroom_05n.jpg,0,0,0.0,0,250,250,250,,,,,,,,,,,,,144.0097482000001,0.00974820000010368,None,176.5112078000002,176.5112078000002,176.5112078000002,176.5112078000002,176.5112078000002,176.5112078000002,176.5112078000002,176.5112078000002,176.5112078000002,176.5112078000002,,003,P021,2025_May_08_1150,ConditionRich,2021.2.3,59.959083921175505,
144.75,145.0,41,0.0,Stimuli/Blank.png,0,0,0.0,0,251,251,251,,,,,,,,,,,,,144.7608983,0.010898300000008021,None,177.26196679999975,177.26196679999975,177.26196679999975,177.26196679999975,177.26196679999975,177.26196679999975,177.26196679999975,177.26196679999975,177.26196679999975,177.26196679999975,,003,P021,2025_May_08_1150,ConditionRich,2021.2.3,59.959083921175505,
145.0,145.75,35,0.75,Stimuli/P009/things_mushroom_05n.jpg,0,0,0.0,0,252,252,252,,,,,,,,,,,,,145.01077540000006,0.010775400000056834,None,177.51209180000023,177.51209180000023,177.51209180000023,177.51209180000023,177.51209180000023,177.51209180000023,177.51209180000023,177.51209180000023,177.51209180000023,177.51209180000023,,003,P021,2025_May_08_1150,ConditionRich,2021.2.3,59.959083921175505,
145.75,146.0,41,0.0,Stimuli/Blank.png,0,0,0.0,0,253,253,253,,,,,,,,,,,,,145.7621091000001,0.012109100000088802,None,178.26276789999974,178.26276789999974,178.26276789999974,178.26276789999974,178.26276789999974,178.26276789999974,178.26276789999974,178.26276789999974,178.26276789999974,178.26276789999974,,003,P021,2025_May_08_1150,ConditionRich,2021.2.3,59.959083921175505,
146.0,146.75,35,0.75,Stimuli/P009/things_mushroom_05n.jpg,0,0,0.0,0,254,254,254,,,,,,,,,,,,,146.0119582999996,0.011958299999605515,None,178.5129735999999,178.5129735999999,178.5129735999999,178.5129735999999,178.5129735999999,178.5129735999999,178.5129735999999,178.5129735999999,178.5129735999999,178.5129735999999,,003,P021,2025_May_08_1150,ConditionRich,2021.2.3,59.959083921175505,
146.75,147.0,41,0.0,Stimuli/Blank.png,0,0,0.0,0,255,255,255,,,,,,,,,,,,,146.7629423999997,0.012942399999701593,None,179.2636422000005,179.2636422000005,179.2636422000005,179.2636422000005,179.2636422000005,179.2636422000005,179.2636422000005,179.2636422000005,179.2636422000005,179.2636422000005,,003,P021,2025_May_08_1150,ConditionRich,2021.2.3,59.959083921175505,
147.0,147.75,35,0.75,Stimuli/P009/things_mushroom_05n.jpg,0,0,0.0,0,256,256,256,,,,,,,,,,,,,147.01481719999992,0.014817199999924924,None,179.53054780000002,179.53054780000002,179.53054780000002,179.53054780000002,179.53054780000002,179.53054780000002,179.53054780000002,179.53054780000002,179.53054780000002,179.53054780000002,,003,P021,2025_May_08_1150,ConditionRich,2021.2.3,59.959083921175505,
147.75,148.0,41,0.0,Stimuli/Blank.png,0,0,0.0,0,257,257,257,,,,,,,,,,,,,147.78009049999946,0.030090499999460008,None,180.28121329999976,180.28121329999976,180.28121329999976,180.28121329999976,180.28121329999976,180.28121329999976,180.28121329999976,180.28121329999976,180.28121329999976,180.28121329999976,,003,P021,2025_May_08_1150,ConditionRich,2021.2.3,59.959083921175505,
148.0,148.75,37,0.75,Stimuli/P009/things_pug_05s.jpg,0,0,0.0,0,258,258,258,,,,,,,,,,,,,148.0141963999995,0.014196399999491405,None,180.5147461000006,180.5147461000006,180.5147461000006,180.5147461000006,180.5147461000006,180.5147461000006,180.5147461000006,180.5147461000006,180.5147461000006,180.5147461000006,,003,P021,2025_May_08_1150,ConditionRich,2021.2.3,59.959083921175505,
148.75,149.0,41,0.0,Stimuli/Blank.png,0,0,0.0,0,259,259,259,,,,,,,,,,,,,148.76454879999983,0.014548799999829498,None,181.26540620000014,181.26540620000014,181.26540620000014,181.26540620000014,181.26540620000014,181.26540620000014,181.26540620000014,181.26540620000014,181.26540620000014,181.26540620000014,,003,P021,2025_May_08_1150,ConditionRich,2021.2.3,59.959083921175505,
149.0,149.75,37,0.75,Stimuli/P009/things_pug_05s.jpg,0,0,0.0,0,260,260,260,,,,,,,,,,,,,149.01421089999985,0.0142108999998527,None,181.51563609999994,181.51563609999994,181.51563609999994,181.51563609999994,181.51563609999994,181.51563609999994,181.51563609999994,181.51563609999994,181.51563609999994,181.51563609999994,,003,P021,2025_May_08_1150,ConditionRich,2021.2.3,59.959083921175505,
149.75,150.0,41,0.0,Stimuli/Blank.png,0,0,0.0,0,261,261,261,,,,,,,,,,,,,149.7650539999995,0.01505399999950896,None,182.26630170000044,182.26630170000044,182.26630170000044,182.26630170000044,182.26630170000044,182.26630170000044,182.26630170000044,182.26630170000044,182.26630170000044,182.26630170000044,,003,P021,2025_May_08_1150,ConditionRich,2021.2.3,59.959083921175505,
150.0,150.75,37,0.75,Stimuli/P009/things_pug_05s.jpg,0,0,0.0,0,262,262,262,,,,,,,,,,,,,150.01538829999936,0.015388299999358424,None,182.51651250000032,182.51651250000032,182.51651250000032,182.51651250000032,182.51651250000032,182.51651250000032,182.51651250000032,182.51651250000032,182.51651250000032,182.51651250000032,,003,P021,2025_May_08_1150,ConditionRich,2021.2.3,59.959083921175505,
