eventStartTime,eventEndTime,eventCond,imSize,imFile,responseEvent,fixRespStart,fixRespEnd,Events.thisRepN,Events.thisTrialN,Events.thisN,Events.thisIndex,Instructions.started,Instructions.stopped,participantReadyResponse.keys,participantReadyResponse.rt,participantReadyResponse.started,participantReadyResponse.stopped,startWaitforTrigger,triggerResponse.keys,triggerResponse.rt,triggerResponse.started,triggerResponse.stopped,globalTimer,actualStartTime,startTimingDiff,participantResponse.keys,participantResponse.started,participantResponse.stopped,image.started,image.stopped,fixationOutside.started,fixationOutside.stopped,fixationResponse.started,fixationResponse.stopped,fixationInside.started,fixationInside.stopped,participantResponse.rt,session,participant,date,expName,psychopyVersion,frameRate,
,,,,,,,,,,,,11.232345800000076,None,1,6.464949400000478,11.232345800000076,None,,,,,,,,,,,,,,,,,,,,,004,P021,2025_May_08_1203,ConditionRich,2021.2.3,59.92092834295935,
,,,,,,,,,,,,,,,,,,17.70295200000055,5,14.510175699999309,17.71707670000069,None,,,,,,,,,,,,,,,,004,P021,2025_May_08_1203,ConditionRich,2021.2.3,59.92092834295935,
0.0,4.0,0,0.0,Stimuli/Blank.png,0,0,0.0,0,0,0,0,,,,,,,,,,,,32.233389300000454,0.02872930000012275,0.02872930000012275,None,32.27993830000014,None,32.27993830000014,None,32.27993830000014,None,32.27993830000014,32.27993830000014,32.27993830000014,None,,004,P021,2025_May_08_1203,ConditionRich,2021.2.3,59.92092834295935,
4.0,7.75,28,0.75,Stimuli/P009/things_face_05s.jpg,0,0,0.0,0,1,1,1,,,,,,,,,,,,,4.022657400000753,0.022657400000753114,None,36.283757800000785,36.283757800000785,36.283757800000785,36.283757800000785,36.283757800000785,36.283757800000785,36.283757800000785,36.283757800000785,36.283757800000785,36.283757800000785,,004,P021,2025_May_08_1203,ConditionRich,2021.2.3,59.92092834295935,
7.75,8.0,41,0.0,Stimuli/Blank.png,0,0,0.0,0,2,2,2,,,,,,,,,,,,,7.772194000000127,0.022194000000126834,None,40.020396800000526,40.020396800000526,40.020396800000526,40.020396800000526,40.020396800000526,40.020396800000526,40.020396800000526,40.020396800000526,40.020396800000526,40.020396800000526,,004,P021,2025_May_08_1203,ConditionRich,2021.2.3,59.92092834295935,
8.0,11.75,14,0.75,Stimuli/P009/sun_blaqxdebghixzyyw.jpg,0,0,0.0,0,3,3,3,,,,,,,,,,,,,8.00578459999997,0.0057845999999699416,None,40.25368620000063,40.25368620000063,40.25368620000063,40.25368620000063,40.25368620000063,40.25368620000063,40.25368620000063,40.25368620000063,40.25368620000063,40.25368620000063,,004,P021,2025_May_08_1203,ConditionRich,2021.2.3,59.92092834295935,
11.75,12.0,41,0.0,Stimuli/Blank.png,0,0,0.0,0,4,4,4,,,,,,,,,,,,,11.759316000000581,0.00931600000058097,None,44.00697070000024,44.00697070000024,44.00697070000024,44.00697070000024,44.00697070000024,44.00697070000024,44.00697070000024,44.00697070000024,44.00697070000024,44.00697070000024,,004,P021,2025_May_08_1203,ConditionRich,2021.2.3,59.92092834295935,
12.0,15.75,26,0.75,Stimuli/P009/things_cookie_sheet_05s.jpg,0,0,0.0,0,5,5,5,,,,,,,,,,,,,12.00972610000008,0.009726100000079896,None,44.25719950000075,44.25719950000075,44.25719950000075,44.25719950000075,44.25719950000075,44.25719950000075,44.25719950000075,44.25719950000075,44.25719950000075,44.25719950000075,,004,P021,2025_May_08_1203,ConditionRich,2021.2.3,59.92092834295935,
15.75,16.0,41,0.0,Stimuli/Blank.png,0,0,0.0,0,6,6,6,,,,,,,,,,,,,15.763515500000722,0.013515500000721659,None,48.01051960000041,48.01051960000041,48.01051960000041,48.01051960000041,48.01051960000041,48.01051960000041,48.01051960000041,48.01051960000041,48.01051960000041,48.01051960000041,,004,P021,2025_May_08_1203,ConditionRich,2021.2.3,59.92092834295935,
16.0,19.75,22,0.75,Stimuli/P009/things_butterfly_05s.jpg,0,0,0.0,0,7,7,7,,,,,,,,,,,,,16.01375189999999,0.013751899999988382,None,48.26072860000022,48.26072860000022,48.26072860000022,48.26072860000022,48.26072860000022,48.26072860000022,48.26072860000022,48.26072860000022,48.26072860000022,48.26072860000022,,004,P021,2025_May_08_1203,ConditionRich,2021.2.3,59.92092834295935,
19.75,20.0,41,0.0,Stimuli/Blank.png,0,0,0.0,0,8,8,8,,,,,,,,,,,,,19.749509400000534,-0.0004905999994662125,None,51.997360400000616,51.997360400000616,51.997360400000616,51.997360400000616,51.997360400000616,51.997360400000616,51.997360400000616,51.997360400000616,51.997360400000616,51.997360400000616,,004,P021,2025_May_08_1203,ConditionRich,2021.2.3,59.92092834295935,
20.0,23.75,4,0.75,Stimuli/P009/sun_afkzdukwewwzqtmr.jpg,0,0,0.0,0,9,9,9,,,,,,,,,,,,,20.000952100000177,0.0009521000001768698,None,52.26429260000077,52.26429260000077,52.26429260000077,52.26429260000077,52.26429260000077,52.26429260000077,52.26429260000077,52.26429260000077,52.26429260000077,52.26429260000077,,004,P021,2025_May_08_1203,ConditionRich,2021.2.3,59.92092834295935,
23.75,24.0,41,0.0,Stimuli/Blank.png,0,0,0.0,0,10,10,10,,,,,,,,,,,,,23.77001030000065,0.020010300000649295,None,56.01757870000074,56.01757870000074,56.01757870000074,56.01757870000074,56.01757870000074,56.01757870000074,56.01757870000074,56.01757870000074,56.01757870000074,56.01757870000074,,004,P021,2025_May_08_1203,ConditionRich,2021.2.3,59.92092834295935,
24.0,27.75,35,0.75,Stimuli/P009/things_mushroom_05n.jpg,1,2,2.75,0,11,11,11,,,,,,,,,,,,,24.00453430000016,0.004534300000159419,None,56.26780570000028,56.26780570000028,56.26780570000028,56.26780570000028,56.26780570000028,56.26780570000028,58.236239700000624,58.98686850000013,56.26780570000028,56.26780570000028,,004,P021,2025_May_08_1203,ConditionRich,2021.2.3,59.92092834295935,
27.75,28.0,41,0.0,Stimuli/Blank.png,0,0,0.0,0,12,12,12,,,,,,,,,,,,,27.77505520000068,0.02505520000067918,None,60.03783400000066,60.03783400000066,60.03783400000066,60.03783400000066,60.03783400000066,60.03783400000066,60.03783400000066,60.03783400000066,60.03783400000066,60.03783400000066,,004,P021,2025_May_08_1203,ConditionRich,2021.2.3,59.92092834295935,
28.0,31.75,7,0.75,Stimuli/P009/sun_apiogxmvvzfmtsmj.jpg,0,0,0.0,0,13,13,13,,,,,,,,,,,,,28.023973400000614,0.023973400000613765,None,60.27133390000017,60.27133390000017,60.27133390000017,60.27133390000017,60.27133390000017,60.27133390000017,60.27133390000017,60.27133390000017,60.27133390000017,60.27133390000017,,004,P021,2025_May_08_1203,ConditionRich,2021.2.3,59.92092834295935,
31.75,32.0,41,0.0,Stimuli/Blank.png,0,0,0.0,0,14,14,14,,,,,,,,,,,,,31.760765700000775,0.010765700000774814,None,64.00796150000042,64.00796150000042,64.00796150000042,64.00796150000042,64.00796150000042,64.00796150000042,64.00796150000042,64.00796150000042,64.00796150000042,64.00796150000042,,004,P021,2025_May_08_1203,ConditionRich,2021.2.3,59.92092834295935,
32.0,35.75,13,0.75,Stimuli/P009/sun_bjimvgwadfodioes.jpg,0,0,0.0,0,15,15,15,,,,,,,,,,,,,32.01043950000076,0.010439500000757107,None,64.25819480000064,64.25819480000064,64.25819480000064,64.25819480000064,64.25819480000064,64.25819480000064,64.25819480000064,64.25819480000064,64.25819480000064,64.25819480000064,,004,P021,2025_May_08_1203,ConditionRich,2021.2.3,59.92092834295935,
35.75,36.0,41,0.0,Stimuli/Blank.png,0,0,0.0,0,16,16,16,,,,,,,,,,,,,35.765417999999954,0.01541799999995419,None,68.01153150000027,68.01153150000027,68.01153150000027,68.01153150000027,68.01153150000027,68.01153150000027,68.01153150000027,68.01153150000027,68.01153150000027,68.01153150000027,,004,P021,2025_May_08_1203,ConditionRich,2021.2.3,59.92092834295935,
36.0,39.75,11,0.75,Stimuli/P009/sun_bfyvfqiimvdaxlqn.jpg,0,0,0.0,0,17,17,17,,,,,,,,,,,,,35.99843800000053,-0.0015619999994669342,None,68.26175400000011,68.26175400000011,68.26175400000011,68.26175400000011,68.26175400000011,68.26175400000011,68.26175400000011,68.26175400000011,68.26175400000011,68.26175400000011,,004,P021,2025_May_08_1203,ConditionRich,2021.2.3,59.92092834295935,
39.75,40.0,41,0.0,Stimuli/Blank.png,0,0,0.0,0,18,18,18,,,,,,,,,,,,,39.767680900000414,0.017680900000414113,None,72.01504710000063,72.01504710000063,72.01504710000063,72.01504710000063,72.01504710000063,72.01504710000063,72.01504710000063,72.01504710000063,72.01504710000063,72.01504710000063,,004,P021,2025_May_08_1203,ConditionRich,2021.2.3,59.92092834295935,
40.0,43.75,29,0.75,Stimuli/P009/things_fingerprint_05s.jpg,0,0,0.0,0,19,19,19,,,,,,,,,,,,,40.00060670000039,0.0006067000003895373,None,72.24859200000083,72.24859200000083,72.24859200000083,72.24859200000083,72.24859200000083,72.24859200000083,72.24859200000083,72.24859200000083,72.24859200000083,72.24859200000083,,004,P021,2025_May_08_1203,ConditionRich,2021.2.3,59.92092834295935,
43.75,44.0,41,0.0,Stimuli/Blank.png,0,0,0.0,0,20,20,20,,,,,,,,,,,,,43.75475050000023,0.0047505000002274755,None,76.0019170000005,76.0019170000005,76.0019170000005,76.0019170000005,76.0019170000005,76.0019170000005,76.0019170000005,76.0019170000005,76.0019170000005,76.0019170000005,,004,P021,2025_May_08_1203,ConditionRich,2021.2.3,59.92092834295935,
44.0,47.75,16,0.75,Stimuli/P009/sun_bqpyqljaflidcauh.jpg,0,0,0.0,0,21,21,21,,,,,,,,,,,,,44.00489000000016,0.004890000000159489,None,76.26881070000036,76.26881070000036,76.26881070000036,76.26881070000036,76.26881070000036,76.26881070000036,76.26881070000036,76.26881070000036,76.26881070000036,76.26881070000036,,004,P021,2025_May_08_1203,ConditionRich,2021.2.3,59.92092834295935,
47.75,48.0,41,0.0,Stimuli/Blank.png,0,0,0.0,0,22,22,22,,,,,,,,,,,,,47.77415139999994,0.024151399999936984,None,80.02216570000019,80.02216570000019,80.02216570000019,80.02216570000019,80.02216570000019,80.02216570000019,80.02216570000019,80.02216570000019,80.02216570000019,80.02216570000019,,004,P021,2025_May_08_1203,ConditionRich,2021.2.3,59.92092834295935,
48.0,51.75,24,0.75,Stimuli/P009/things_cigar_05n.jpg,0,0,0.0,0,23,23,23,,,,,,,,,,,,,48.008805600000414,0.008805600000414415,None,80.25567520000004,80.25567520000004,80.25567520000004,80.25567520000004,80.25567520000004,80.25567520000004,80.25567520000004,80.25567520000004,80.25567520000004,80.25567520000004,,004,P021,2025_May_08_1203,ConditionRich,2021.2.3,59.92092834295935,
51.75,52.0,41,0.0,Stimuli/Blank.png,0,0,0.0,0,24,24,24,,,,,,,,,,,,,51.761468600000626,0.011468600000625884,None,84.00898340000003,84.00898340000003,84.00898340000003,84.00898340000003,84.00898340000003,84.00898340000003,84.00898340000003,84.00898340000003,84.00898340000003,84.00898340000003,,004,P021,2025_May_08_1203,ConditionRich,2021.2.3,59.92092834295935,
52.0,55.75,9,0.75,Stimuli/P009/sun_bdjkvwqqqycuixtc.jpg,1,2,2.75,0,25,25,25,,,,,,,,,,,,,52.01152480000019,0.011524800000188407,1,84.25920260000021,84.25920260000021,84.25920260000021,84.25920260000021,84.25920260000021,84.25920260000021,86.24429450000025,86.99501670000063,84.25920260000021,84.25920260000021,2.6383230000001276,004,P021,2025_May_08_1203,ConditionRich,2021.2.3,59.92092834295935,
55.75,56.0,41,0.0,Stimuli/Blank.png,0,0,0.0,0,26,26,26,,,,,,,,,,,,,55.765455900000234,0.015455900000233669,None,88.01251250000041,88.01251250000041,88.01251250000041,88.01251250000041,88.01251250000041,88.01251250000041,88.01251250000041,88.01251250000041,88.01251250000041,88.01251250000041,,004,P021,2025_May_08_1203,ConditionRich,2021.2.3,59.92092834295935,
56.0,59.75,33,0.75,Stimuli/P009/things_lizard_05n.jpg,1,2,2.75,0,27,27,27,,,,,,,,,,,,,56.015266400000655,0.015266400000655267,None,88.26274310000008,88.26274310000008,88.26274310000008,88.26274310000008,88.26274310000008,88.26274310000008,90.24783470000057,90.9984669000005,88.26274310000008,88.26274310000008,,004,P021,2025_May_08_1203,ConditionRich,2021.2.3,59.92092834295935,
59.75,60.0,41,0.0,Stimuli/Blank.png,0,0,0.0,0,28,28,28,,,,,,,,,,,,,59.75150460000077,0.001504600000771461,None,91.99937590000081,91.99937590000081,91.99937590000081,91.99937590000081,91.99937590000081,91.99937590000081,91.99937590000081,91.99937590000081,91.99937590000081,91.99937590000081,,004,P021,2025_May_08_1203,ConditionRich,2021.2.3,59.92092834295935,
60.0,63.75,20,0.75,Stimuli/P009/sun_ddsiwinthvyejghq.jpg,0,0,0.0,0,29,29,29,,,,,,,,,,,,,60.00175350000063,0.0017535000006319024,None,92.24960750000082,92.24960750000082,92.24960750000082,92.24960750000082,92.24960750000082,92.24960750000082,92.24960750000082,92.24960750000082,92.24960750000082,92.24960750000082,,004,P021,2025_May_08_1203,ConditionRich,2021.2.3,59.92092834295935,
63.75,64.0,41,0.0,Stimuli/Blank.png,0,0,0.0,0,30,30,30,,,,,,,,,,,,,63.75487040000007,0.00487040000007255,None,96.0029153000005,96.0029153000005,96.0029153000005,96.0029153000005,96.0029153000005,96.0029153000005,96.0029153000005,96.0029153000005,96.0029153000005,96.0029153000005,,004,P021,2025_May_08_1203,ConditionRich,2021.2.3,59.92092834295935,
64.0,67.75,12,0.75,Stimuli/P009/sun_birmwgkdtrlevcaf.jpg,1,2,2.75,0,31,31,31,,,,,,,,,,,,,64.00625770000079,0.006257700000787736,1,96.26983689999997,96.26983689999997,96.26983689999997,96.26983689999997,96.26983689999997,96.26983689999997,98.23822680000012,98.98891000000003,96.26983689999997,96.26983689999997,2.738384400000541,004,P021,2025_May_08_1203,ConditionRich,2021.2.3,59.92092834295935,
67.75,68.0,41,0.0,Stimuli/Blank.png,0,0,0.0,0,32,32,32,,,,,,,,,,,,,67.77632560000075,0.026325600000745908,None,100.02314840000054,100.02314840000054,100.02314840000054,100.02314840000054,100.02314840000054,100.02314840000054,100.02314840000054,100.02314840000054,100.02314840000054,100.02314840000054,,004,P021,2025_May_08_1203,ConditionRich,2021.2.3,59.92092834295935,
68.0,71.75,32,0.75,Stimuli/P009/things_hawk_05s.jpg,0,0,0.0,0,33,33,33,,,,,,,,,,,,,68.00890980000077,0.008909800000765244,None,100.25668120000046,100.25668120000046,100.25668120000046,100.25668120000046,100.25668120000046,100.25668120000046,100.25668120000046,100.25668120000046,100.25668120000046,100.25668120000046,,004,P021,2025_May_08_1203,ConditionRich,2021.2.3,59.92092834295935,
71.75,72.0,41,0.0,Stimuli/Blank.png,0,0,0.0,0,34,34,34,,,,,,,,,,,,,71.76602640000056,0.01602640000055544,None,104.02668770000037,104.02668770000037,104.02668770000037,104.02668770000037,104.02668770000037,104.02668770000037,104.02668770000037,104.02668770000037,104.02668770000037,104.02668770000037,,004,P021,2025_May_08_1203,ConditionRich,2021.2.3,59.92092834295935,
72.0,75.75,15,0.75,Stimuli/P009/sun_boryivbddrnarrbo.jpg,0,0,0.0,0,35,35,35,,,,,,,,,,,,,72.01289150000048,0.012891500000478118,None,104.2769102000002,104.2769102000002,104.2769102000002,104.2769102000002,104.2769102000002,104.2769102000002,104.2769102000002,104.2769102000002,104.2769102000002,104.2769102000002,,004,P021,2025_May_08_1203,ConditionRich,2021.2.3,59.92092834295935,
75.75,76.0,41,0.0,Stimuli/Blank.png,0,0,0.0,0,36,36,36,,,,,,,,,,,,,75.76635030000034,0.016350300000340212,None,108.0135192000007,108.0135192000007,108.0135192000007,108.0135192000007,108.0135192000007,108.0135192000007,108.0135192000007,108.0135192000007,108.0135192000007,108.0135192000007,,004,P021,2025_May_08_1203,ConditionRich,2021.2.3,59.92092834295935,
76.0,79.75,10,0.75,Stimuli/P009/sun_bdkttewvyfdarikm.jpg,0,0,0.0,0,37,37,37,,,,,,,,,,,,,76.00052720000076,0.0005272000007607858,None,108.26375189999999,108.26375189999999,108.26375189999999,108.26375189999999,108.26375189999999,108.26375189999999,108.26375189999999,108.26375189999999,108.26375189999999,108.26375189999999,,004,P021,2025_May_08_1203,ConditionRich,2021.2.3,59.92092834295935,
79.75,80.0,41,0.0,Stimuli/Blank.png,0,0,0.0,0,38,38,38,,,,,,,,,,,,,79.76972390000083,0.01972390000082669,None,112.01707480000005,112.01707480000005,112.01707480000005,112.01707480000005,112.01707480000005,112.01707480000005,112.01707480000005,112.01707480000005,112.01707480000005,112.01707480000005,,004,P021,2025_May_08_1203,ConditionRich,2021.2.3,59.92092834295935,
80.0,83.75,1,0.75,Stimuli/P009/sun_abqdlumenyzawlme.jpg,0,0,0.0,0,39,39,39,,,,,,,,,,,,,80.0033839000007,0.0033839000006992137,None,112.26728820000062,112.26728820000062,112.26728820000062,112.26728820000062,112.26728820000062,112.26728820000062,112.26728820000062,112.26728820000062,112.26728820000062,112.26728820000062,,004,P021,2025_May_08_1203,ConditionRich,2021.2.3,59.92092834295935,
83.75,84.0,41,0.0,Stimuli/Blank.png,0,0,0.0,0,40,40,40,,,,,,,,,,,,,83.77534500000002,0.025345000000015716,None,116.0373010000003,116.0373010000003,116.0373010000003,116.0373010000003,116.0373010000003,116.0373010000003,116.0373010000003,116.0373010000003,116.0373010000003,116.0373010000003,,004,P021,2025_May_08_1203,ConditionRich,2021.2.3,59.92092834295935,
84.0,100.0,0,0.0,Stimuli/Blank.png,1,2,2.75,0,41,41,41,,,,,,,,,,,,,84.02370990000054,0.023709900000540074,1,116.27081130000079,116.27081130000079,116.27081130000079,116.27081130000079,116.27081130000079,116.27081130000079,118.25590410000041,119.00677630000064,116.27081130000079,116.27081130000079,2.7025909000003594,004,P021,2025_May_08_1203,ConditionRich,2021.2.3,59.92092834295935,
100.0,103.75,39,0.75,Stimuli/P009/things_tiara_05s.jpg,1,0,0.75,0,42,42,42,,,,,,,,,,,,,100.00441920000048,0.004419200000484125,1,132.2683018000007,132.2683018000007,132.2683018000007,132.2683018000007,132.2683018000007,132.2683018000007,132.2683018000007,132.98559400000067,132.2683018000007,132.2683018000007,1.2700113999999303,004,P021,2025_May_08_1203,ConditionRich,2021.2.3,59.92092834295935,
103.75,104.0,41,0.0,Stimuli/Blank.png,0,0,0.0,0,43,43,43,,,,,,,,,,,,,103.77436910000051,0.024369100000512844,None,136.02161080000042,136.02161080000042,136.02161080000042,136.02161080000042,136.02161080000042,136.02161080000042,136.02161080000042,136.02161080000042,136.02161080000042,136.02161080000042,,004,P021,2025_May_08_1203,ConditionRich,2021.2.3,59.92092834295935,
104.0,107.75,8,0.75,Stimuli/P009/sun_batcnoizlkeiqdtx.jpg,0,0,0.0,0,44,44,44,,,,,,,,,,,,,104.00804900000003,0.008049000000028173,None,136.25514850000036,136.25514850000036,136.25514850000036,136.25514850000036,136.25514850000036,136.25514850000036,136.25514850000036,136.25514850000036,136.25514850000036,136.25514850000036,,004,P021,2025_May_08_1203,ConditionRich,2021.2.3,59.92092834295935,
107.75,108.0,41,0.0,Stimuli/Blank.png,0,0,0.0,0,45,45,45,,,,,,,,,,,,,107.7604994000003,0.01049940000029892,None,140.00846190000084,140.00846190000084,140.00846190000084,140.00846190000084,140.00846190000084,140.00846190000084,140.00846190000084,140.00846190000084,140.00846190000084,140.00846190000084,,004,P021,2025_May_08_1203,ConditionRich,2021.2.3,59.92092834295935,
108.0,111.75,21,0.75,Stimuli/P009/things_boy_05s.jpg,0,0,0.0,0,46,46,46,,,,,,,,,,,,,108.01161910000064,0.011619100000643812,None,140.27537610000036,140.27537610000036,140.27537610000036,140.27537610000036,140.27537610000036,140.27537610000036,140.27537610000036,140.27537610000036,140.27537610000036,140.27537610000036,,004,P021,2025_May_08_1203,ConditionRich,2021.2.3,59.92092834295935,
111.75,112.0,41,0.0,Stimuli/Blank.png,0,0,0.0,0,47,47,47,,,,,,,,,,,,,111.78130110000075,0.031301100000746374,None,144.02875760000006,144.02875760000006,144.02875760000006,144.02875760000006,144.02875760000006,144.02875760000006,144.02875760000006,144.02875760000006,144.02875760000006,144.02875760000006,,004,P021,2025_May_08_1203,ConditionRich,2021.2.3,59.92092834295935,
112.0,115.75,34,0.75,Stimuli/P009/things_man_05s.jpg,0,0,0.0,0,48,48,48,,,,,,,,,,,,,112.01500790000046,0.015007900000455265,None,144.26222690000031,144.26222690000031,144.26222690000031,144.26222690000031,144.26222690000031,144.26222690000031,144.26222690000031,144.26222690000031,144.26222690000031,144.26222690000031,,004,P021,2025_May_08_1203,ConditionRich,2021.2.3,59.92092834295935,
115.75,116.0,41,0.0,Stimuli/Blank.png,0,0,0.0,0,49,49,49,,,,,,,,,,,,,115.7515626000004,0.0015626000003976515,None,147.99886590000006,147.99886590000006,147.99886590000006,147.99886590000006,147.99886590000006,147.99886590000006,147.99886590000006,147.99886590000006,147.99886590000006,147.99886590000006,,004,P021,2025_May_08_1203,ConditionRich,2021.2.3,59.92092834295935,
116.0,119.75,23,0.75,Stimuli/P009/things_charger_05s.jpg,0,0,0.0,0,50,50,50,,,,,,,,,,,,,116.00176590000046,0.0017659000004641712,None,148.24908630000027,148.24908630000027,148.24908630000027,148.24908630000027,148.24908630000027,148.24908630000027,148.24908630000027,148.24908630000027,148.24908630000027,148.24908630000027,,004,P021,2025_May_08_1203,ConditionRich,2021.2.3,59.92092834295935,
119.75,120.0,41,0.0,Stimuli/Blank.png,0,0,0.0,0,51,51,51,,,,,,,,,,,,,119.75620330000038,0.006203300000379386,None,152.01911860000018,152.01911860000018,152.01911860000018,152.01911860000018,152.01911860000018,152.01911860000018,152.01911860000018,152.01911860000018,152.01911860000018,152.01911860000018,,004,P021,2025_May_08_1203,ConditionRich,2021.2.3,59.92092834295935,
120.0,123.75,38,0.75,Stimuli/P009/things_roadsweeper_05s.jpg,0,0,0.0,0,52,52,52,,,,,,,,,,,,,120.02138520000062,0.021385200000622717,None,152.26930560000073,152.26930560000073,152.26930560000073,152.26930560000073,152.26930560000073,152.26930560000073,152.26930560000073,152.26930560000073,152.26930560000073,152.26930560000073,,004,P021,2025_May_08_1203,ConditionRich,2021.2.3,59.92092834295935,
123.75,124.0,41,0.0,Stimuli/Blank.png,0,0,0.0,0,53,53,53,,,,,,,,,,,,,123.76008189999993,0.01008189999993192,None,156.02262190000056,156.02262190000056,156.02262190000056,156.02262190000056,156.02262190000056,156.02262190000056,156.02262190000056,156.02262190000056,156.02262190000056,156.02262190000056,,004,P021,2025_May_08_1203,ConditionRich,2021.2.3,59.92092834295935,
124.0,127.75,37,0.75,Stimuli/P009/things_pug_05s.jpg,0,0,0.0,0,54,54,54,,,,,,,,,,,,,124.0257388,0.025738799999999173,None,156.27284450000025,156.27284450000025,156.27284450000025,156.27284450000025,156.27284450000025,156.27284450000025,156.27284450000025,156.27284450000025,156.27284450000025,156.27284450000025,,004,P021,2025_May_08_1203,ConditionRich,2021.2.3,59.92092834295935,
127.75,128.0,41,0.0,Stimuli/Blank.png,0,0,0.0,0,55,55,55,,,,,,,,,,,,,127.7615478000007,0.011547800000698771,None,160.0094751000006,160.0094751000006,160.0094751000006,160.0094751000006,160.0094751000006,160.0094751000006,160.0094751000006,160.0094751000006,160.0094751000006,160.0094751000006,,004,P021,2025_May_08_1203,ConditionRich,2021.2.3,59.92092834295935,
128.0,131.75,40,0.75,Stimuli/P009/things_woman_05s.jpg,0,0,0.0,0,56,56,56,,,,,,,,,,,,,128.01197000000047,0.011970000000474101,None,160.2763840000007,160.2763840000007,160.2763840000007,160.2763840000007,160.2763840000007,160.2763840000007,160.2763840000007,160.2763840000007,160.2763840000007,160.2763840000007,,004,P021,2025_May_08_1203,ConditionRich,2021.2.3,59.92092834295935,
131.75,132.0,41,0.0,Stimuli/Blank.png,0,0,0.0,0,57,57,57,,,,,,,,,,,,,131.78283060000012,0.03283060000012483,None,164.0297739000007,164.0297739000007,164.0297739000007,164.0297739000007,164.0297739000007,164.0297739000007,164.0297739000007,164.0297739000007,164.0297739000007,164.0297739000007,,004,P021,2025_May_08_1203,ConditionRich,2021.2.3,59.92092834295935,
132.0,135.75,30,0.75,Stimuli/P009/things_fire_05s.jpg,0,0,0.0,0,58,58,58,,,,,,,,,,,,,132.00063210000008,0.0006321000000752974,None,164.26323300000058,164.26323300000058,164.26323300000058,164.26323300000058,164.26323300000058,164.26323300000058,164.26323300000058,164.26323300000058,164.26323300000058,164.26323300000058,,004,P021,2025_May_08_1203,ConditionRich,2021.2.3,59.92092834295935,
135.75,136.0,41,0.0,Stimuli/Blank.png,0,0,0.0,0,59,59,59,,,,,,,,,,,,,135.76860600000055,0.018606000000545464,None,168.0165231000001,168.0165231000001,168.0165231000001,168.0165231000001,168.0165231000001,168.0165231000001,168.0165231000001,168.0165231000001,168.0165231000001,168.0165231000001,,004,P021,2025_May_08_1203,ConditionRich,2021.2.3,59.92092834295935,
136.0,139.75,5,0.75,Stimuli/P009/sun_akqvdmuauoxeafrj.jpg,0,0,0.0,0,60,60,60,,,,,,,,,,,,,136.00283590000072,0.0028359000007185386,None,168.2667717000004,168.2667717000004,168.2667717000004,168.2667717000004,168.2667717000004,168.2667717000004,168.2667717000004,168.2667717000004,168.2667717000004,168.2667717000004,,004,P021,2025_May_08_1203,ConditionRich,2021.2.3,59.92092834295935,
139.75,140.0,41,0.0,Stimuli/Blank.png,0,0,0.0,0,61,61,61,,,,,,,,,,,,,139.77269330000036,0.02269330000035552,None,172.02016040000035,172.02016040000035,172.02016040000035,172.02016040000035,172.02016040000035,172.02016040000035,172.02016040000035,172.02016040000035,172.02016040000035,172.02016040000035,,004,P021,2025_May_08_1203,ConditionRich,2021.2.3,59.92092834295935,
140.0,143.75,25,0.75,Stimuli/P009/things_clothespin_05s.jpg,1,2,2.75,0,62,62,62,,,,,,,,,,,,,140.0058854000008,0.00588540000080684,1,172.2535964000008,172.2535964000008,172.2535964000008,172.2535964000008,172.2535964000008,172.2535964000008,174.2387092000008,174.98937410000053,172.2535964000008,172.2535964000008,3.1977325999996538,004,P021,2025_May_08_1203,ConditionRich,2021.2.3,59.92092834295935,
143.75,144.0,41,0.0,Stimuli/Blank.png,0,0,0.0,0,63,63,63,,,,,,,,,,,,,143.75967149999997,0.009671499999967637,None,176.0069467000003,176.0069467000003,176.0069467000003,176.0069467000003,176.0069467000003,176.0069467000003,176.0069467000003,176.0069467000003,176.0069467000003,176.0069467000003,,004,P021,2025_May_08_1203,ConditionRich,2021.2.3,59.92092834295935,
144.0,147.75,19,0.75,Stimuli/P009/sun_bwvfnogmotsvhofs.jpg,1,2,2.75,0,64,64,64,,,,,,,,,,,,,144.00925720000032,0.009257200000320154,1,176.25715840000066,176.25715840000066,176.25715840000066,176.25715840000066,176.25715840000066,176.25715840000066,178.24226380000073,178.99291220000032,176.25715840000066,176.25715840000066,2.5271161999999094,004,P021,2025_May_08_1203,ConditionRich,2021.2.3,59.92092834295935,
147.75,148.0,41,0.0,Stimuli/Blank.png,0,0,0.0,0,65,65,65,,,,,,,,,,,,,147.76249950000056,0.012499500000558328,None,180.0104811000001,180.0104811000001,180.0104811000001,180.0104811000001,180.0104811000001,180.0104811000001,180.0104811000001,180.0104811000001,180.0104811000001,180.0104811000001,,004,P021,2025_May_08_1203,ConditionRich,2021.2.3,59.92092834295935,
148.0,151.75,17,0.75,Stimuli/P009/sun_brkrfjpyfglmigkk.jpg,0,0,0.0,0,66,66,66,,,,,,,,,,,,,148.012694,0.01269400000001042,None,180.27739790000032,180.27739790000032,180.27739790000032,180.27739790000032,180.27739790000032,180.27739790000032,180.27739790000032,180.27739790000032,180.27739790000032,180.27739790000032,,004,P021,2025_May_08_1203,ConditionRich,2021.2.3,59.92092834295935,
151.75,152.0,41,0.0,Stimuli/Blank.png,0,0,0.0,0,67,67,67,,,,,,,,,,,,,151.76595540000017,0.015955400000166264,None,184.01401590000023,184.01401590000023,184.01401590000023,184.01401590000023,184.01401590000023,184.01401590000023,184.01401590000023,184.01401590000023,184.01401590000023,184.01401590000023,,004,P021,2025_May_08_1203,ConditionRich,2021.2.3,59.92092834295935,
152.0,155.75,18,0.75,Stimuli/P009/sun_bwjdahsxcqepqqbm.jpg,1,2,2.75,0,68,68,68,,,,,,,,,,,,,152.00018750000072,0.0001875000007203198,1,184.24756030000026,184.24756030000026,184.24756030000026,184.24756030000026,184.24756030000026,184.24756030000026,186.23262950000026,186.98330410000017,184.24756030000026,184.24756030000026,2.4516027999998187,004,P021,2025_May_08_1203,ConditionRich,2021.2.3,59.92092834295935,
155.75,156.0,41,0.0,Stimuli/Blank.png,0,0,0.0,0,69,69,69,,,,,,,,,,,,,155.75282530000004,0.0028253000000404427,None,188.00092310000036,188.00092310000036,188.00092310000036,188.00092310000036,188.00092310000036,188.00092310000036,188.00092310000036,188.00092310000036,188.00092310000036,188.00092310000036,,004,P021,2025_May_08_1203,ConditionRich,2021.2.3,59.92092834295935,
156.0,159.75,3,0.75,Stimuli/P009/sun_aewgwsmvsgzleqhw.jpg,0,0,0.0,0,70,70,70,,,,,,,,,,,,,156.00610270000016,0.006102700000155892,None,188.26780159999998,188.26780159999998,188.26780159999998,188.26780159999998,188.26780159999998,188.26780159999998,188.26780159999998,188.26780159999998,188.26780159999998,188.26780159999998,,004,P021,2025_May_08_1203,ConditionRich,2021.2.3,59.92092834295935,
159.75,160.0,41,0.0,Stimuli/Blank.png,0,0,0.0,0,71,71,71,,,,,,,,,,,,,159.7752489000004,0.025248900000406138,None,192.03778200000033,192.03778200000033,192.03778200000033,192.03778200000033,192.03778200000033,192.03778200000033,192.03778200000033,192.03778200000033,192.03778200000033,192.03778200000033,,004,P021,2025_May_08_1203,ConditionRich,2021.2.3,59.92092834295935,
160.0,163.75,27,0.75,Stimuli/P009/things_curling_iron_05s.jpg,0,0,0.0,0,72,72,72,,,,,,,,,,,,,160.02480280000054,0.024802800000543357,None,192.2879982000004,192.2879982000004,192.2879982000004,192.2879982000004,192.2879982000004,192.2879982000004,192.2879982000004,192.2879982000004,192.2879982000004,192.2879982000004,,004,P021,2025_May_08_1203,ConditionRich,2021.2.3,59.92092834295935,
163.75,164.0,41,0.0,Stimuli/Blank.png,0,0,0.0,0,73,73,73,,,,,,,,,,,,,163.77717490000032,0.027174900000318303,None,196.02463230000012,196.02463230000012,196.02463230000012,196.02463230000012,196.02463230000012,196.02463230000012,196.02463230000012,196.02463230000012,196.02463230000012,196.02463230000012,,004,P021,2025_May_08_1203,ConditionRich,2021.2.3,59.92092834295935,
164.0,167.75,31,0.75,Stimuli/P009/things_girl_05s.jpg,0,0,0.0,0,74,74,74,,,,,,,,,,,,,164.0108441000002,0.010844100000213075,None,196.25817030000053,196.25817030000053,196.25817030000053,196.25817030000053,196.25817030000053,196.25817030000053,196.25817030000053,196.25817030000053,196.25817030000053,196.25817030000053,,004,P021,2025_May_08_1203,ConditionRich,2021.2.3,59.92092834295935,
167.75,168.0,41,0.0,Stimuli/Blank.png,0,0,0.0,0,75,75,75,,,,,,,,,,,,,167.76633610000044,0.016336100000444276,None,200.02817649999997,200.02817649999997,200.02817649999997,200.02817649999997,200.02817649999997,200.02817649999997,200.02817649999997,200.02817649999997,200.02817649999997,200.02817649999997,,004,P021,2025_May_08_1203,ConditionRich,2021.2.3,59.92092834295935,
168.0,171.75,2,0.75,Stimuli/P009/sun_acvloibbxiqpiwnv.jpg,0,0,0.0,0,76,76,76,,,,,,,,,,,,,168.01375129999997,0.01375129999996716,None,200.26170900000034,200.26170900000034,200.26170900000034,200.26170900000034,200.26170900000034,200.26170900000034,200.26170900000034,200.26170900000034,200.26170900000034,200.26170900000034,,004,P021,2025_May_08_1203,ConditionRich,2021.2.3,59.92092834295935,
171.75,172.0,41,0.0,Stimuli/Blank.png,0,0,0.0,0,77,77,77,,,,,,,,,,,,,171.75052630000027,0.0005263000002742046,None,203.9983484000004,203.9983484000004,203.9983484000004,203.9983484000004,203.9983484000004,203.9983484000004,203.9983484000004,203.9983484000004,203.9983484000004,203.9983484000004,,004,P021,2025_May_08_1203,ConditionRich,2021.2.3,59.92092834295935,
172.0,175.75,36,0.75,Stimuli/P009/things_pelican_05s.jpg,0,0,0.0,0,78,78,78,,,,,,,,,,,,,172.00079330000062,0.000793300000623276,None,204.24861600000077,204.24861600000077,204.24861600000077,204.24861600000077,204.24861600000077,204.24861600000077,204.24861600000077,204.24861600000077,204.24861600000077,204.24861600000077,,004,P021,2025_May_08_1203,ConditionRich,2021.2.3,59.92092834295935,
175.75,176.0,41,0.0,Stimuli/Blank.png,0,0,0.0,0,79,79,79,,,,,,,,,,,,,175.75467670000035,0.0046767000003455905,None,208.001886,208.001886,208.001886,208.001886,208.001886,208.001886,208.001886,208.001886,208.001886,208.001886,,004,P021,2025_May_08_1203,ConditionRich,2021.2.3,59.92092834295935,
176.0,179.75,6,0.75,Stimuli/P009/sun_amkrwcyvinmsylsz.jpg,0,0,0.0,0,80,80,80,,,,,,,,,,,,,176.00573880000047,0.005738800000472111,None,208.2688016000002,208.2688016000002,208.2688016000002,208.2688016000002,208.2688016000002,208.2688016000002,208.2688016000002,208.2688016000002,208.2688016000002,208.2688016000002,,004,P021,2025_May_08_1203,ConditionRich,2021.2.3,59.92092834295935,
179.75,180.0,41,0.0,Stimuli/Blank.png,0,0,0.0,0,81,81,81,,,,,,,,,,,,,179.77458530000058,0.0245853000005809,None,212.0220928000008,212.0220928000008,212.0220928000008,212.0220928000008,212.0220928000008,212.0220928000008,212.0220928000008,212.0220928000008,212.0220928000008,212.0220928000008,,004,P021,2025_May_08_1203,ConditionRich,2021.2.3,59.92092834295935,
180.0,196.0,0,0.0,Stimuli/Blank.png,1,12,12.75,0,82,82,82,,,,,,,,,,,,,180.0076269000001,0.007626900000104797,1,212.25563720000082,212.25563720000082,212.25563720000082,212.25563720000082,212.25563720000082,212.25563720000082,224.23288880000018,224.98354430000018,212.25563720000082,212.25563720000082,13.200593399999889,004,P021,2025_May_08_1203,ConditionRich,2021.2.3,59.92092834295935,
196.0,199.75,29,0.75,Stimuli/P009/things_fingerprint_05s.jpg,0,0,0.0,0,83,83,83,,,,,,,,,,,,,196.00672020000002,0.00672020000001794,None,228.2698132000005,228.2698132000005,228.2698132000005,228.2698132000005,228.2698132000005,228.2698132000005,228.2698132000005,228.2698132000005,228.2698132000005,228.2698132000005,,004,P021,2025_May_08_1203,ConditionRich,2021.2.3,59.92092834295935,
199.75,200.0,41,0.0,Stimuli/Blank.png,0,0,0.0,0,84,84,84,,,,,,,,,,,,,199.77641050000057,0.026410500000565662,None,232.03982780000024,232.03982780000024,232.03982780000024,232.03982780000024,232.03982780000024,232.03982780000024,232.03982780000024,232.03982780000024,232.03982780000024,232.03982780000024,,004,P021,2025_May_08_1203,ConditionRich,2021.2.3,59.92092834295935,
200.0,203.75,35,0.75,Stimuli/P009/things_mushroom_05n.jpg,0,0,0.0,0,85,85,85,,,,,,,,,,,,,200.0260246000007,0.026024600000710052,None,232.2900240000008,232.2900240000008,232.2900240000008,232.2900240000008,232.2900240000008,232.2900240000008,232.2900240000008,232.2900240000008,232.2900240000008,232.2900240000008,,004,P021,2025_May_08_1203,ConditionRich,2021.2.3,59.92092834295935,
203.75,204.0,41,0.0,Stimuli/Blank.png,0,0,0.0,0,86,86,86,,,,,,,,,,,,,203.77992640000048,0.02992640000047686,None,236.0266545000004,236.0266545000004,236.0266545000004,236.0266545000004,236.0266545000004,236.0266545000004,236.0266545000004,236.0266545000004,236.0266545000004,236.0266545000004,,004,P021,2025_May_08_1203,ConditionRich,2021.2.3,59.92092834295935,
204.0,207.75,8,0.75,Stimuli/P009/sun_batcnoizlkeiqdtx.jpg,0,0,0.0,0,87,87,87,,,,,,,,,,,,,204.01216410000052,0.012164100000518374,None,236.27688190000026,236.27688190000026,236.27688190000026,236.27688190000026,236.27688190000026,236.27688190000026,236.27688190000026,236.27688190000026,236.27688190000026,236.27688190000026,,004,P021,2025_May_08_1203,ConditionRich,2021.2.3,59.92092834295935,
207.75,208.0,41,0.0,Stimuli/Blank.png,0,0,0.0,0,88,88,88,,,,,,,,,,,,,207.78519070000038,0.03519070000038482,None,240.04686530000072,240.04686530000072,240.04686530000072,240.04686530000072,240.04686530000072,240.04686530000072,240.04686530000072,240.04686530000072,240.04686530000072,240.04686530000072,,004,P021,2025_May_08_1203,ConditionRich,2021.2.3,59.92092834295935,
208.0,211.75,11,0.75,Stimuli/P009/sun_bfyvfqiimvdaxlqn.jpg,0,0,0.0,0,89,89,89,,,,,,,,,,,,,208.01632380000046,0.01632380000046396,None,240.2637231000008,240.2637231000008,240.2637231000008,240.2637231000008,240.2637231000008,240.2637231000008,240.2637231000008,240.2637231000008,240.2637231000008,240.2637231000008,,004,P021,2025_May_08_1203,ConditionRich,2021.2.3,59.92092834295935,
211.75,212.0,41,0.0,Stimuli/Blank.png,0,0,0.0,0,90,90,90,,,,,,,,,,,,,211.7522897000008,0.002289700000801531,None,244.00035360000038,244.00035360000038,244.00035360000038,244.00035360000038,244.00035360000038,244.00035360000038,244.00035360000038,244.00035360000038,244.00035360000038,244.00035360000038,,004,P021,2025_May_08_1203,ConditionRich,2021.2.3,59.92092834295935,
212.0,215.75,23,0.75,Stimuli/P009/things_charger_05s.jpg,1,1,1.75,0,91,91,91,,,,,,,,,,,,,212.00293200000033,0.0029320000003281166,None,244.26730230000067,244.26730230000067,244.26730230000067,244.26730230000067,244.26730230000067,244.26730230000067,245.23481700000048,245.9855959000006,244.26730230000067,244.26730230000067,,004,P021,2025_May_08_1203,ConditionRich,2021.2.3,59.92092834295935,
215.75,216.0,41,0.0,Stimuli/Blank.png,0,0,0.0,0,92,92,92,,,,,,,,,,,,,215.77388950000022,0.023889500000223052,None,248.0205715000002,248.0205715000002,248.0205715000002,248.0205715000002,248.0205715000002,248.0205715000002,248.0205715000002,248.0205715000002,248.0205715000002,248.0205715000002,,004,P021,2025_May_08_1203,ConditionRich,2021.2.3,59.92092834295935,
216.0,219.75,24,0.75,Stimuli/P009/things_cigar_05n.jpg,0,0,0.0,0,93,93,93,,,,,,,,,,,,,216.00678740000058,0.006787400000575872,None,248.2541166000001,248.2541166000001,248.2541166000001,248.2541166000001,248.2541166000001,248.2541166000001,248.2541166000001,248.2541166000001,248.2541166000001,248.2541166000001,,004,P021,2025_May_08_1203,ConditionRich,2021.2.3,59.92092834295935,
219.75,220.0,41,0.0,Stimuli/Blank.png,0,0,0.0,0,94,94,94,,,,,,,,,,,,,219.7594065000003,0.009406500000295637,None,252.007431,252.007431,252.007431,252.007431,252.007431,252.007431,252.007431,252.007431,252.007431,252.007431,,004,P021,2025_May_08_1203,ConditionRich,2021.2.3,59.92092834295935,
220.0,223.75,3,0.75,Stimuli/P009/sun_aewgwsmvsgzleqhw.jpg,0,0,0.0,0,95,95,95,,,,,,,,,,,,,220.0096321000001,0.00963210000008985,None,252.2576570000001,252.2576570000001,252.2576570000001,252.2576570000001,252.2576570000001,252.2576570000001,252.2576570000001,252.2576570000001,252.2576570000001,252.2576570000001,,004,P021,2025_May_08_1203,ConditionRich,2021.2.3,59.92092834295935,
223.75,224.0,41,0.0,Stimuli/Blank.png,0,0,0.0,0,96,96,96,,,,,,,,,,,,,223.76516260000062,0.015162600000621751,None,256.02765010000076,256.02765010000076,256.02765010000076,256.02765010000076,256.02765010000076,256.02765010000076,256.02765010000076,256.02765010000076,256.02765010000076,256.02765010000076,,004,P021,2025_May_08_1203,ConditionRich,2021.2.3,59.92092834295935,
224.0,227.75,15,0.75,Stimuli/P009/sun_boryivbddrnarrbo.jpg,1,0,0.75,0,97,97,97,,,,,,,,,,,,,224.03055470000072,0.030554700000720914,1,256.29457,256.29457,256.29457,256.29457,256.29457,256.29457,256.29457,257.0118228000001,256.29457,256.29457,0.6487909999996191,004,P021,2025_May_08_1203,ConditionRich,2021.2.3,59.92092834295935,
227.75,228.0,41,0.0,Stimuli/Blank.png,0,0,0.0,0,98,98,98,,,,,,,,,,,,,227.76664299999993,0.016642999999930908,None,260.01450320000004,260.01450320000004,260.01450320000004,260.01450320000004,260.01450320000004,260.01450320000004,260.01450320000004,260.01450320000004,260.01450320000004,260.01450320000004,,004,P021,2025_May_08_1203,ConditionRich,2021.2.3,59.92092834295935,
228.0,231.75,16,0.75,Stimuli/P009/sun_bqpyqljaflidcauh.jpg,0,0,0.0,0,99,99,99,,,,,,,,,,,,,228.00087060000078,0.0008706000007805414,None,260.26472809999996,260.26472809999996,260.26472809999996,260.26472809999996,260.26472809999996,260.26472809999996,260.26472809999996,260.26472809999996,260.26472809999996,260.26472809999996,,004,P021,2025_May_08_1203,ConditionRich,2021.2.3,59.92092834295935,
231.75,232.0,41,0.0,Stimuli/Blank.png,0,0,0.0,0,100,100,100,,,,,,,,,,,,,231.77157549999993,0.02157549999992625,None,264.03477590000057,264.03477590000057,264.03477590000057,264.03477590000057,264.03477590000057,264.03477590000057,264.03477590000057,264.03477590000057,264.03477590000057,264.03477590000057,,004,P021,2025_May_08_1203,ConditionRich,2021.2.3,59.92092834295935,
232.0,235.75,26,0.75,Stimuli/P009/things_cookie_sheet_05s.jpg,0,0,0.0,0,101,101,101,,,,,,,,,,,,,232.02051230000052,0.020512300000518735,None,264.2682829000005,264.2682829000005,264.2682829000005,264.2682829000005,264.2682829000005,264.2682829000005,264.2682829000005,264.2682829000005,264.2682829000005,264.2682829000005,,004,P021,2025_May_08_1203,ConditionRich,2021.2.3,59.92092834295935,
235.75,236.0,41,0.0,Stimuli/Blank.png,0,0,0.0,0,102,102,102,,,,,,,,,,,,,235.7570239000006,0.007023900000604044,None,268.00490290000016,268.00490290000016,268.00490290000016,268.00490290000016,268.00490290000016,268.00490290000016,268.00490290000016,268.00490290000016,268.00490290000016,268.00490290000016,,004,P021,2025_May_08_1203,ConditionRich,2021.2.3,59.92092834295935,
236.0,239.75,38,0.75,Stimuli/P009/things_roadsweeper_05s.jpg,0,0,0.0,0,103,103,103,,,,,,,,,,,,,236.00805410000066,0.008054100000663311,None,268.2717945000004,268.2717945000004,268.2717945000004,268.2717945000004,268.2717945000004,268.2717945000004,268.2717945000004,268.2717945000004,268.2717945000004,268.2717945000004,,004,P021,2025_May_08_1203,ConditionRich,2021.2.3,59.92092834295935,
239.75,240.0,41,0.0,Stimuli/Blank.png,0,0,0.0,0,104,104,104,,,,,,,,,,,,,239.77775070000007,0.027750700000069628,None,272.02511980000054,272.02511980000054,272.02511980000054,272.02511980000054,272.02511980000054,272.02511980000054,272.02511980000054,272.02511980000054,272.02511980000054,272.02511980000054,,004,P021,2025_May_08_1203,ConditionRich,2021.2.3,59.92092834295935,
240.0,243.75,39,0.75,Stimuli/P009/things_tiara_05s.jpg,1,2,2.75,0,105,105,105,,,,,,,,,,,,,240.01255840000067,0.0125584000006711,1,272.2753543000008,272.2753543000008,272.2753543000008,272.2753543000008,272.2753543000008,272.2753543000008,274.2437376000007,274.99444960000073,272.2753543000008,272.2753543000008,2.452826300000197,004,P021,2025_May_08_1203,ConditionRich,2021.2.3,59.92092834295935,
243.75,244.0,41,0.0,Stimuli/Blank.png,0,0,0.0,0,106,106,106,,,,,,,,,,,,,243.76480280000033,0.014802800000325078,None,276.0119773000006,276.0119773000006,276.0119773000006,276.0119773000006,276.0119773000006,276.0119773000006,276.0119773000006,276.0119773000006,276.0119773000006,276.0119773000006,,004,P021,2025_May_08_1203,ConditionRich,2021.2.3,59.92092834295935,
244.0,247.75,27,0.75,Stimuli/P009/things_curling_iron_05s.jpg,0,0,0.0,0,107,107,107,,,,,,,,,,,,,244.01578380000046,0.01578380000046309,None,276.2788743000001,276.2788743000001,276.2788743000001,276.2788743000001,276.2788743000001,276.2788743000001,276.2788743000001,276.2788743000001,276.2788743000001,276.2788743000001,,004,P021,2025_May_08_1203,ConditionRich,2021.2.3,59.92092834295935,
247.75,248.0,41,0.0,Stimuli/Blank.png,0,0,0.0,0,108,108,108,,,,,,,,,,,,,247.76748339999995,0.017483399999946414,None,280.0155100000002,280.0155100000002,280.0155100000002,280.0155100000002,280.0155100000002,280.0155100000002,280.0155100000002,280.0155100000002,280.0155100000002,280.0155100000002,,004,P021,2025_May_08_1203,ConditionRich,2021.2.3,59.92092834295935,
248.0,251.75,6,0.75,Stimuli/P009/sun_amkrwcyvinmsylsz.jpg,0,0,0.0,0,109,109,109,,,,,,,,,,,,,248.00119799999993,0.0011979999999311985,None,280.26573440000084,280.26573440000084,280.26573440000084,280.26573440000084,280.26573440000084,280.26573440000084,280.26573440000084,280.26573440000084,280.26573440000084,280.26573440000084,,004,P021,2025_May_08_1203,ConditionRich,2021.2.3,59.92092834295935,
251.75,252.0,41,0.0,Stimuli/Blank.png,0,0,0.0,0,110,110,110,,,,,,,,,,,,,251.77161140000044,0.021611400000438152,None,284.01904660000037,284.01904660000037,284.01904660000037,284.01904660000037,284.01904660000037,284.01904660000037,284.01904660000037,284.01904660000037,284.01904660000037,284.01904660000037,,004,P021,2025_May_08_1203,ConditionRich,2021.2.3,59.92092834295935,
252.0,255.75,33,0.75,Stimuli/P009/things_lizard_05n.jpg,0,0,0.0,0,111,111,111,,,,,,,,,,,,,252.00604340000064,0.006043400000635302,None,284.2692710000001,284.2692710000001,284.2692710000001,284.2692710000001,284.2692710000001,284.2692710000001,284.2692710000001,284.2692710000001,284.2692710000001,284.2692710000001,,004,P021,2025_May_08_1203,ConditionRich,2021.2.3,59.92092834295935,
255.75,256.0,41,0.0,Stimuli/Blank.png,0,0,0.0,0,112,112,112,,,,,,,,,,,,,255.77523569999994,0.025235699999939243,None,288.0225891,288.0225891,288.0225891,288.0225891,288.0225891,288.0225891,288.0225891,288.0225891,288.0225891,288.0225891,,004,P021,2025_May_08_1203,ConditionRich,2021.2.3,59.92092834295935,
256.0,259.75,32,0.75,Stimuli/P009/things_hawk_05s.jpg,0,0,0.0,0,113,113,113,,,,,,,,,,,,,256.00889670000015,0.008896700000150304,None,288.2561245000006,288.2561245000006,288.2561245000006,288.2561245000006,288.2561245000006,288.2561245000006,288.2561245000006,288.2561245000006,288.2561245000006,288.2561245000006,,004,P021,2025_May_08_1203,ConditionRich,2021.2.3,59.92092834295935,
259.75,260.0,41,0.0,Stimuli/Blank.png,0,0,0.0,0,114,114,114,,,,,,,,,,,,,259.7625637000001,0.012563700000100653,None,292.00952920000054,292.00952920000054,292.00952920000054,292.00952920000054,292.00952920000054,292.00952920000054,292.00952920000054,292.00952920000054,292.00952920000054,292.00952920000054,,004,P021,2025_May_08_1203,ConditionRich,2021.2.3,59.92092834295935,
260.0,263.75,13,0.75,Stimuli/P009/sun_bjimvgwadfodioes.jpg,0,0,0.0,0,115,115,115,,,,,,,,,,,,,260.0118301000002,0.011830100000224775,None,292.2763500000001,292.2763500000001,292.2763500000001,292.2763500000001,292.2763500000001,292.2763500000001,292.2763500000001,292.2763500000001,292.2763500000001,292.2763500000001,,004,P021,2025_May_08_1203,ConditionRich,2021.2.3,59.92092834295935,
263.75,264.0,41,0.0,Stimuli/Blank.png,0,0,0.0,0,116,116,116,,,,,,,,,,,,,263.7816362000003,0.03163620000032097,None,296.0296689000006,296.0296689000006,296.0296689000006,296.0296689000006,296.0296689000006,296.0296689000006,296.0296689000006,296.0296689000006,296.0296689000006,296.0296689000006,,004,P021,2025_May_08_1203,ConditionRich,2021.2.3,59.92092834295935,
264.0,267.75,1,0.75,Stimuli/P009/sun_abqdlumenyzawlme.jpg,0,0,0.0,0,117,117,117,,,,,,,,,,,,,264.01601090000077,0.016010900000765105,None,296.27988730000015,296.27988730000015,296.27988730000015,296.27988730000015,296.27988730000015,296.27988730000015,296.27988730000015,296.27988730000015,296.27988730000015,296.27988730000015,,004,P021,2025_May_08_1203,ConditionRich,2021.2.3,59.92092834295935,
267.75,268.0,41,0.0,Stimuli/Blank.png,0,0,0.0,0,118,118,118,,,,,,,,,,,,,267.7715840999999,0.021584099999927275,None,300.0332121000001,300.0332121000001,300.0332121000001,300.0332121000001,300.0332121000001,300.0332121000001,300.0332121000001,300.0332121000001,300.0332121000001,300.0332121000001,,004,P021,2025_May_08_1203,ConditionRich,2021.2.3,59.92092834295935,
268.0,271.75,19,0.75,Stimuli/P009/sun_bwvfnogmotsvhofs.jpg,0,0,0.0,0,119,119,119,,,,,,,,,,,,,268.0198235000007,0.019823500000711647,None,300.2835081000003,300.2835081000003,300.2835081000003,300.2835081000003,300.2835081000003,300.2835081000003,300.2835081000003,300.2835081000003,300.2835081000003,300.2835081000003,,004,P021,2025_May_08_1203,ConditionRich,2021.2.3,59.92092834295935,
271.75,272.0,41,0.0,Stimuli/Blank.png,0,0,0.0,0,120,120,120,,,,,,,,,,,,,271.7720790000003,0.022079000000303495,None,304.0200551000007,304.0200551000007,304.0200551000007,304.0200551000007,304.0200551000007,304.0200551000007,304.0200551000007,304.0200551000007,304.0200551000007,304.0200551000007,,004,P021,2025_May_08_1203,ConditionRich,2021.2.3,59.92092834295935,
272.0,275.75,10,0.75,Stimuli/P009/sun_bdkttewvyfdarikm.jpg,1,1,1.75,0,121,121,121,,,,,,,,,,,,,272.0063445000005,0.006344500000523112,1,304.2535959000006,304.2535959000006,304.2535959000006,304.2535959000006,304.2535959000006,304.2535959000006,305.2377942000003,305.9884541000001,304.2535959000006,304.2535959000006,1.7459084000001894,004,P021,2025_May_08_1203,ConditionRich,2021.2.3,59.92092834295935,
275.75,276.0,41,0.0,Stimuli/Blank.png,0,0,0.0,0,122,122,122,,,,,,,,,,,,,275.7605652000002,0.010565200000201003,None,308.0069159000004,308.0069159000004,308.0069159000004,308.0069159000004,308.0069159000004,308.0069159000004,308.0069159000004,308.0069159000004,308.0069159000004,308.0069159000004,,004,P021,2025_May_08_1203,ConditionRich,2021.2.3,59.92092834295935,
276.0,292.0,0,0.0,Stimuli/Blank.png,1,2,2.75,0,123,123,123,,,,,,,,,,,,,276.01051559999996,0.010515599999962433,1,308.2571377000004,308.2571377000004,308.2571377000004,308.2571377000004,308.2571377000004,308.2571377000004,310.24221080000007,310.9929022000006,308.2571377000004,308.2571377000004,2.508377200000723,004,P021,2025_May_08_1203,ConditionRich,2021.2.3,59.92092834295935,
292.0,295.75,17,0.75,Stimuli/P009/sun_brkrfjpyfglmigkk.jpg,1,1,1.75,0,124,124,124,,,,,,,,,,,,,292.00755890000073,0.007558900000731228,1,324.27129950000017,324.27129950000017,324.27129950000017,324.27129950000017,324.27129950000017,324.27129950000017,325.2388395000007,325.98945490000006,324.27129950000017,324.27129950000017,1.4250606000005064,004,P021,2025_May_08_1203,ConditionRich,2021.2.3,59.92092834295935,
295.75,296.0,41,0.0,Stimuli/Blank.png,0,0,0.0,0,125,125,125,,,,,,,,,,,,,295.77743550000014,0.027435500000137836,None,328.0245992,328.0245992,328.0245992,328.0245992,328.0245992,328.0245992,328.0245992,328.0245992,328.0245992,328.0245992,,004,P021,2025_May_08_1203,ConditionRich,2021.2.3,59.92092834295935,
296.0,299.75,34,0.75,Stimuli/P009/things_man_05s.jpg,1,2,2.75,0,126,126,126,,,,,,,,,,,,,296.01071540000066,0.010715400000663067,1,328.2581340000006,328.2581340000006,328.2581340000006,328.2581340000006,328.2581340000006,328.2581340000006,330.24321430000055,330.9938791000004,328.2581340000006,328.2581340000006,2.6442619999997987,004,P021,2025_May_08_1203,ConditionRich,2021.2.3,59.92092834295935,
299.75,300.0,41,0.0,Stimuli/Blank.png,0,0,0.0,0,127,127,127,,,,,,,,,,,,,299.7655674000007,0.015567400000691123,None,332.02815330000067,332.02815330000067,332.02815330000067,332.02815330000067,332.02815330000067,332.02815330000067,332.02815330000067,332.02815330000067,332.02815330000067,332.02815330000067,,004,P021,2025_May_08_1203,ConditionRich,2021.2.3,59.92092834295935,
300.0,303.75,5,0.75,Stimuli/P009/sun_akqvdmuauoxeafrj.jpg,1,0,0.75,0,128,128,128,,,,,,,,,,,,,300.0167407000008,0.01674070000080974,1,332.2783586000005,332.2783586000005,332.2783586000005,332.2783586000005,332.2783586000005,332.2783586000005,332.2783586000005,333.0123499000001,332.2783586000005,332.2783586000005,1.0561218000002555,004,P021,2025_May_08_1203,ConditionRich,2021.2.3,59.92092834295935,
303.75,304.0,41,0.0,Stimuli/Blank.png,0,0,0.0,0,129,129,129,,,,,,,,,,,,,303.7690104000003,0.019010400000297523,None,336.0150003000008,336.0150003000008,336.0150003000008,336.0150003000008,336.0150003000008,336.0150003000008,336.0150003000008,336.0150003000008,336.0150003000008,336.0150003000008,,004,P021,2025_May_08_1203,ConditionRich,2021.2.3,59.92092834295935,
304.0,307.75,22,0.75,Stimuli/P009/things_butterfly_05s.jpg,0,0,0.0,0,130,130,130,,,,,,,,,,,,,304.00072,0.0007200000000011642,None,336.24863110000024,336.24863110000024,336.24863110000024,336.24863110000024,336.24863110000024,336.24863110000024,336.24863110000024,336.24863110000024,336.24863110000024,336.24863110000024,,004,P021,2025_May_08_1203,ConditionRich,2021.2.3,59.92092834295935,
307.75,308.0,41,0.0,Stimuli/Blank.png,0,0,0.0,0,131,131,131,,,,,,,,,,,,,307.75457390000065,0.00457390000065061,None,340.0018419000007,340.0018419000007,340.0018419000007,340.0018419000007,340.0018419000007,340.0018419000007,340.0018419000007,340.0018419000007,340.0018419000007,340.0018419000007,,004,P021,2025_May_08_1203,ConditionRich,2021.2.3,59.92092834295935,
308.0,311.75,40,0.75,Stimuli/P009/things_woman_05s.jpg,0,0,0.0,0,132,132,132,,,,,,,,,,,,,308.00522870000077,0.005228700000770914,None,340.26877870000044,340.26877870000044,340.26877870000044,340.26877870000044,340.26877870000044,340.26877870000044,340.26877870000044,340.26877870000044,340.26877870000044,340.26877870000044,,004,P021,2025_May_08_1203,ConditionRich,2021.2.3,59.92092834295935,
311.75,312.0,41,0.0,Stimuli/Blank.png,0,0,0.0,0,133,133,133,,,,,,,,,,,,,311.7740818000002,0.024081800000203657,None,344.0220618000003,344.0220618000003,344.0220618000003,344.0220618000003,344.0220618000003,344.0220618000003,344.0220618000003,344.0220618000003,344.0220618000003,344.0220618000003,,004,P021,2025_May_08_1203,ConditionRich,2021.2.3,59.92092834295935,
312.0,315.75,37,0.75,Stimuli/P009/things_pug_05s.jpg,0,0,0.0,0,134,134,134,,,,,,,,,,,,,312.00838640000075,0.008386400000745198,None,344.2722801,344.2722801,344.2722801,344.2722801,344.2722801,344.2722801,344.2722801,344.2722801,344.2722801,344.2722801,,004,P021,2025_May_08_1203,ConditionRich,2021.2.3,59.92092834295935,
315.75,316.0,41,0.0,Stimuli/Blank.png,0,0,0.0,0,135,135,135,,,,,,,,,,,,,315.77759140000035,0.027591400000346766,None,348.02567250000084,348.02567250000084,348.02567250000084,348.02567250000084,348.02567250000084,348.02567250000084,348.02567250000084,348.02567250000084,348.02567250000084,348.02567250000084,,004,P021,2025_May_08_1203,ConditionRich,2021.2.3,59.92092834295935,
316.0,319.75,2,0.75,Stimuli/P009/sun_acvloibbxiqpiwnv.jpg,0,0,0.0,0,136,136,136,,,,,,,,,,,,,316.0120381000006,0.01203810000060912,None,348.2758233000004,348.2758233000004,348.2758233000004,348.2758233000004,348.2758233000004,348.2758233000004,348.2758233000004,348.2758233000004,348.2758233000004,348.2758233000004,,004,P021,2025_May_08_1203,ConditionRich,2021.2.3,59.92092834295935,
319.75,320.0,41,0.0,Stimuli/Blank.png,0,0,0.0,0,137,137,137,,,,,,,,,,,,,319.7818270000007,0.031827000000703265,None,352.0291227000007,352.0291227000007,352.0291227000007,352.0291227000007,352.0291227000007,352.0291227000007,352.0291227000007,352.0291227000007,352.0291227000007,352.0291227000007,,004,P021,2025_May_08_1203,ConditionRich,2021.2.3,59.92092834295935,
320.0,323.75,7,0.75,Stimuli/P009/sun_apiogxmvvzfmtsmj.jpg,0,0,0.0,0,138,138,138,,,,,,,,,,,,,320.01468750000004,0.01468750000003638,None,352.26268470000014,352.26268470000014,352.26268470000014,352.26268470000014,352.26268470000014,352.26268470000014,352.26268470000014,352.26268470000014,352.26268470000014,352.26268470000014,,004,P021,2025_May_08_1203,ConditionRich,2021.2.3,59.92092834295935,
323.75,324.0,41,0.0,Stimuli/Blank.png,0,0,0.0,0,139,139,139,,,,,,,,,,,,,323.7515359000008,0.0015359000008174917,None,355.9993194000008,355.9993194000008,355.9993194000008,355.9993194000008,355.9993194000008,355.9993194000008,355.9993194000008,355.9993194000008,355.9993194000008,355.9993194000008,,004,P021,2025_May_08_1203,ConditionRich,2021.2.3,59.92092834295935,
324.0,327.75,28,0.75,Stimuli/P009/things_face_05s.jpg,0,0,0.0,0,140,140,140,,,,,,,,,,,,,324.0026690000004,0.0026690000004236936,None,356.26623870000003,356.26623870000003,356.26623870000003,356.26623870000003,356.26623870000003,356.26623870000003,356.26623870000003,356.26623870000003,356.26623870000003,356.26623870000003,,004,P021,2025_May_08_1203,ConditionRich,2021.2.3,59.92092834295935,
327.75,328.0,41,0.0,Stimuli/Blank.png,0,0,0.0,0,141,141,141,,,,,,,,,,,,,327.77233500000057,0.02233500000056665,None,360.01953870000034,360.01953870000034,360.01953870000034,360.01953870000034,360.01953870000034,360.01953870000034,360.01953870000034,360.01953870000034,360.01953870000034,360.01953870000034,,004,P021,2025_May_08_1203,ConditionRich,2021.2.3,59.92092834295935,
328.0,331.75,14,0.75,Stimuli/P009/sun_blaqxdebghixzyyw.jpg,0,0,0.0,0,142,142,142,,,,,,,,,,,,,328.00652160000027,0.006521600000269245,None,360.26978580000014,360.26978580000014,360.26978580000014,360.26978580000014,360.26978580000014,360.26978580000014,360.26978580000014,360.26978580000014,360.26978580000014,360.26978580000014,,004,P021,2025_May_08_1203,ConditionRich,2021.2.3,59.92092834295935,
331.75,332.0,41,0.0,Stimuli/Blank.png,0,0,0.0,0,143,143,143,,,,,,,,,,,,,331.7757440000005,0.025744000000486267,None,364.0230878000002,364.0230878000002,364.0230878000002,364.0230878000002,364.0230878000002,364.0230878000002,364.0230878000002,364.0230878000002,364.0230878000002,364.0230878000002,,004,P021,2025_May_08_1203,ConditionRich,2021.2.3,59.92092834295935,
332.0,335.75,18,0.75,Stimuli/P009/sun_bwjdahsxcqepqqbm.jpg,0,0,0.0,0,144,144,144,,,,,,,,,,,,,332.0093914000008,0.009391400000822614,None,364.27330080000047,364.27330080000047,364.27330080000047,364.27330080000047,364.27330080000047,364.27330080000047,364.27330080000047,364.27330080000047,364.27330080000047,364.27330080000047,,004,P021,2025_May_08_1203,ConditionRich,2021.2.3,59.92092834295935,
335.75,336.0,41,0.0,Stimuli/Blank.png,0,0,0.0,0,145,145,145,,,,,,,,,,,,,335.78004110000074,0.030041100000744336,None,368.0433404000005,368.0433404000005,368.0433404000005,368.0433404000005,368.0433404000005,368.0433404000005,368.0433404000005,368.0433404000005,368.0433404000005,368.0433404000005,,004,P021,2025_May_08_1203,ConditionRich,2021.2.3,59.92092834295935,
336.0,339.75,12,0.75,Stimuli/P009/sun_birmwgkdtrlevcaf.jpg,0,0,0.0,0,146,146,146,,,,,,,,,,,,,336.0295767000007,0.029576700000689016,None,368.2768366,368.2768366,368.2768366,368.2768366,368.2768366,368.2768366,368.2768366,368.2768366,368.2768366,368.2768366,,004,P021,2025_May_08_1203,ConditionRich,2021.2.3,59.92092834295935,
339.75,340.0,41,0.0,Stimuli/Blank.png,0,0,0.0,0,147,147,147,,,,,,,,,,,,,339.74976940000033,-0.000230599999667902,None,371.99679150000065,371.99679150000065,371.99679150000065,371.99679150000065,371.99679150000065,371.99679150000065,371.99679150000065,371.99679150000065,371.99679150000065,371.99679150000065,,004,P021,2025_May_08_1203,ConditionRich,2021.2.3,59.92092834295935,
340.0,343.75,25,0.75,Stimuli/P009/things_clothespin_05s.jpg,0,0,0.0,0,148,148,148,,,,,,,,,,,,,339.9998776000002,-0.00012239999978191918,None,372.26366750000034,372.26366750000034,372.26366750000034,372.26366750000034,372.26366750000034,372.26366750000034,372.26366750000034,372.26366750000034,372.26366750000034,372.26366750000034,,004,P021,2025_May_08_1203,ConditionRich,2021.2.3,59.92092834295935,
343.75,344.0,41,0.0,Stimuli/Blank.png,0,0,0.0,0,149,149,149,,,,,,,,,,,,,343.7697012000008,0.019701200000781682,None,376.0169719000005,376.0169719000005,376.0169719000005,376.0169719000005,376.0169719000005,376.0169719000005,376.0169719000005,376.0169719000005,376.0169719000005,376.0169719000005,,004,P021,2025_May_08_1203,ConditionRich,2021.2.3,59.92092834295935,
344.0,347.75,20,0.75,Stimuli/P009/sun_ddsiwinthvyejghq.jpg,0,0,0.0,0,150,150,150,,,,,,,,,,,,,344.0053187000003,0.005318700000316312,None,376.26722620000055,376.26722620000055,376.26722620000055,376.26722620000055,376.26722620000055,376.26722620000055,376.26722620000055,376.26722620000055,376.26722620000055,376.26722620000055,,004,P021,2025_May_08_1203,ConditionRich,2021.2.3,59.92092834295935,
347.75,348.0,41,0.0,Stimuli/Blank.png,0,0,0.0,0,151,151,151,,,,,,,,,,,,,347.7749012000004,0.02490120000038587,None,380.0372356000007,380.0372356000007,380.0372356000007,380.0372356000007,380.0372356000007,380.0372356000007,380.0372356000007,380.0372356000007,380.0372356000007,380.0372356000007,,004,P021,2025_May_08_1203,ConditionRich,2021.2.3,59.92092834295935,
348.0,351.75,36,0.75,Stimuli/P009/things_pelican_05s.jpg,1,3,3.75,0,152,152,152,,,,,,,,,,,,,348.0252519000005,0.02525190000051225,1,380.28746180000053,380.28746180000053,380.28746180000053,380.28746180000053,380.28746180000053,380.28746180000053,383.2734203,None,380.28746180000053,380.28746180000053,3.641691200000423,004,P021,2025_May_08_1203,ConditionRich,2021.2.3,59.92092834295935,
351.75,352.0,41,0.0,Stimuli/Blank.png,0,0,0.0,0,153,153,153,,,,,,,,,,,,,351.77647740000066,0.026477400000658236,None,384.0240797000006,384.0240797000006,384.0240797000006,384.0240797000006,384.0240797000006,384.0240797000006,384.0240797000006,384.0240797000006,384.0240797000006,384.0240797000006,,004,P021,2025_May_08_1203,ConditionRich,2021.2.3,59.92092834295935,
352.0,355.75,9,0.75,Stimuli/P009/sun_bdjkvwqqqycuixtc.jpg,0,0,0.0,0,154,154,154,,,,,,,,,,,,,352.0100942000008,0.01009420000082173,None,384.2576202,384.2576202,384.2576202,384.2576202,384.2576202,384.2576202,384.2576202,384.2576202,384.2576202,384.2576202,,004,P021,2025_May_08_1203,ConditionRich,2021.2.3,59.92092834295935,
355.75,356.0,41,0.0,Stimuli/Blank.png,0,0,0.0,0,155,155,155,,,,,,,,,,,,,355.7645194000006,0.014519400000608584,None,388.01094450000073,388.01094450000073,388.01094450000073,388.01094450000073,388.01094450000073,388.01094450000073,388.01094450000073,388.01094450000073,388.01094450000073,388.01094450000073,,004,P021,2025_May_08_1203,ConditionRich,2021.2.3,59.92092834295935,
356.0,359.75,4,0.75,Stimuli/P009/sun_afkzdukwewwzqtmr.jpg,0,0,0.0,0,156,156,156,,,,,,,,,,,,,356.0144489000004,0.014448900000388676,None,388.27783050000016,388.27783050000016,388.27783050000016,388.27783050000016,388.27783050000016,388.27783050000016,388.27783050000016,388.27783050000016,388.27783050000016,388.27783050000016,,004,P021,2025_May_08_1203,ConditionRich,2021.2.3,59.92092834295935,
359.75,360.0,41,0.0,Stimuli/Blank.png,0,0,0.0,0,157,157,157,,,,,,,,,,,,,359.7667962000005,0.016796200000499084,None,392.0144706000001,392.0144706000001,392.0144706000001,392.0144706000001,392.0144706000001,392.0144706000001,392.0144706000001,392.0144706000001,392.0144706000001,392.0144706000001,,004,P021,2025_May_08_1203,ConditionRich,2021.2.3,59.92092834295935,
360.0,363.75,30,0.75,Stimuli/P009/things_fire_05s.jpg,0,0,0.0,0,158,158,158,,,,,,,,,,,,,360.00071580000076,0.0007158000007621013,None,392.2647237000001,392.2647237000001,392.2647237000001,392.2647237000001,392.2647237000001,392.2647237000001,392.2647237000001,392.2647237000001,392.2647237000001,392.2647237000001,,004,P021,2025_May_08_1203,ConditionRich,2021.2.3,59.92092834295935,
363.75,364.0,41,0.0,Stimuli/Blank.png,0,0,0.0,0,159,159,159,,,,,,,,,,,,,363.77065630000016,0.02065630000015517,None,396.0180181000005,396.0180181000005,396.0180181000005,396.0180181000005,396.0180181000005,396.0180181000005,396.0180181000005,396.0180181000005,396.0180181000005,396.0180181000005,,004,P021,2025_May_08_1203,ConditionRich,2021.2.3,59.92092834295935,
364.0,367.75,21,0.75,Stimuli/P009/things_boy_05s.jpg,0,0,0.0,0,160,160,160,,,,,,,,,,,,,364.0056604000001,0.005660400000124355,None,396.2682009,396.2682009,396.2682009,396.2682009,396.2682009,396.2682009,396.2682009,396.2682009,396.2682009,396.2682009,,004,P021,2025_May_08_1203,ConditionRich,2021.2.3,59.92092834295935,
367.75,368.0,41,0.0,Stimuli/Blank.png,0,0,0.0,0,161,161,161,,,,,,,,,,,,,367.77459760000056,0.024597600000561215,None,400.02156900000045,400.02156900000045,400.02156900000045,400.02156900000045,400.02156900000045,400.02156900000045,400.02156900000045,400.02156900000045,400.02156900000045,400.02156900000045,,004,P021,2025_May_08_1203,ConditionRich,2021.2.3,59.92092834295935,
368.0,371.75,31,0.75,Stimuli/P009/things_girl_05s.jpg,0,0,0.0,0,162,162,162,,,,,,,,,,,,,368.00847370000065,0.008473700000649842,None,400.2717724000004,400.2717724000004,400.2717724000004,400.2717724000004,400.2717724000004,400.2717724000004,400.2717724000004,400.2717724000004,400.2717724000004,400.2717724000004,,004,P021,2025_May_08_1203,ConditionRich,2021.2.3,59.92092834295935,
371.75,372.0,41,0.0,Stimuli/Blank.png,0,0,0.0,0,163,163,163,,,,,,,,,,,,,371.77705380000043,0.027053800000430783,None,404.02508600000056,404.02508600000056,404.02508600000056,404.02508600000056,404.02508600000056,404.02508600000056,404.02508600000056,404.02508600000056,404.02508600000056,404.02508600000056,,004,P021,2025_May_08_1203,ConditionRich,2021.2.3,59.92092834295935,
372.0,388.0,0,0.0,Stimuli/Blank.png,1,9,9.75,0,164,164,164,,,,,,,,,,,,,372.0107654000003,0.010765400000309455,1,404.2586244000004,404.2586244000004,404.2586244000004,404.2586244000004,404.2586244000004,404.2586244000004,413.2499428000001,414.00060790000043,404.2586244000004,404.2586244000004,9.923557199999777,004,P021,2025_May_08_1203,ConditionRich,2021.2.3,59.92092834295935,
