eventStartTime,eventEndTime,eventCond,imSize,imFile,responseEvent,fixRespStart,fixRespEnd,Events.thisRepN,Events.thisTrialN,Events.thisN,Events.thisIndex,Instructions.started,Instructions.stopped,participantReadyResponse.keys,participantReadyResponse.rt,participantReadyResponse.started,participantReadyResponse.stopped,startWaitforTrigger,triggerResponse.keys,triggerResponse.rt,triggerResponse.started,triggerResponse.stopped,globalTimer,actualStartTime,startTimingDiff,participantResponse.keys,participantResponse.started,participantResponse.stopped,image.started,image.stopped,fixationOutside.started,fixationOutside.stopped,fixationResponse.started,fixationResponse.stopped,fixationInside.started,fixationInside.stopped,participantResponse.rt,session,participant,date,expName,psychopyVersion,frameRate,
,,,,,,,,,,,,10.41112350000003,None,1,6.893404399999781,10.41112350000003,None,,,,,,,,,,,,,,,,,,,,,002,P021,2025_May_08_1143,ConditionRich,2021.2.3,59.92071291266705,
,,,,,,,,,,,,,,,,,,17.31655039999987,5,13.72936160000063,17.32990979999977,None,,,,,,,,,,,,,,,,002,P021,2025_May_08_1143,ConditionRich,2021.2.3,59.92071291266705,
0.0,4.0,0,0.0,Stimuli/Blank.png,0,0.0,0.0,0,0,0,0,,,,,,,,,,,,31.062802100000226,0.03322370000023511,0.03322370000023511,None,31.108712600000217,None,31.108712600000217,None,31.108712600000217,None,31.108712600000217,31.108712600000217,31.108712600000217,None,,002,P021,2025_May_08_1143,ConditionRich,2021.2.3,59.92071291266705,
4.0,4.75,14,0.75,Stimuli/P009/sun_blaqxdebghixzyyw.jpg,1,0.0,0.75,0,1,1,1,,,,,,,,,,,,,4.003575199999432,0.0035751999994317885,1,35.09578260000035,35.09578260000035,35.09578260000035,35.09578260000035,35.09578260000035,35.09578260000035,35.09578260000035,35.81287350000002,35.09578260000035,35.09578260000035,0.4005414000002929,002,P021,2025_May_08_1143,ConditionRich,2021.2.3,59.92071291266705,
4.75,8.0,41,0.0,Stimuli/Blank.png,0,0.0,0.0,0,2,2,2,,,,,,,,,,,,,4.769795899999735,0.01979589999973541,None,35.846547699999974,35.846547699999974,35.846547699999974,35.846547699999974,35.846547699999974,35.846547699999974,35.846547699999974,35.846547699999974,35.846547699999974,35.846547699999974,,002,P021,2025_May_08_1143,ConditionRich,2021.2.3,59.92071291266705,
8.0,8.75,33,0.75,Stimuli/P009/things_lizard_05n.jpg,0,0.0,0.0,0,3,3,3,,,,,,,,,,,,,8.00505449999946,0.005054499999459949,None,39.09910089999994,39.09910089999994,39.09910089999994,39.09910089999994,39.09910089999994,39.09910089999994,39.09910089999994,39.09910089999994,39.09910089999994,39.09910089999994,,002,P021,2025_May_08_1143,ConditionRich,2021.2.3,59.92071291266705,
8.75,12.0,41,0.0,Stimuli/Blank.png,0,0.0,0.0,0,4,4,4,,,,,,,,,,,,,8.77341449999949,0.023414499999489635,None,39.84986300000037,39.84986300000037,39.84986300000037,39.84986300000037,39.84986300000037,39.84986300000037,39.84986300000037,39.84986300000037,39.84986300000037,39.84986300000037,,002,P021,2025_May_08_1143,ConditionRich,2021.2.3,59.92071291266705,
12.0,12.75,27,0.75,Stimuli/P009/things_curling_iron_05s.jpg,0,0.0,0.0,0,5,5,5,,,,,,,,,,,,,12.008722200000193,0.00872220000019297,None,43.085989600000175,43.085989600000175,43.085989600000175,43.085989600000175,43.085989600000175,43.085989600000175,43.085989600000175,43.085989600000175,43.085989600000175,43.085989600000175,,002,P021,2025_May_08_1143,ConditionRich,2021.2.3,59.92071291266705,
12.75,16.0,41,0.0,Stimuli/Blank.png,0,0.0,0.0,0,6,6,6,,,,,,,,,,,,,12.759957100000065,0.009957100000065111,None,43.83664659999977,43.83664659999977,43.83664659999977,43.83664659999977,43.83664659999977,43.83664659999977,43.83664659999977,43.83664659999977,43.83664659999977,43.83664659999977,,002,P021,2025_May_08_1143,ConditionRich,2021.2.3,59.92071291266705,
16.0,16.75,37,0.75,Stimuli/P009/things_pug_05s.jpg,0,0.0,0.0,0,7,7,7,,,,,,,,,,,,,16.01217110000016,0.01217110000015964,None,47.08952229999977,47.08952229999977,47.08952229999977,47.08952229999977,47.08952229999977,47.08952229999977,47.08952229999977,47.08952229999977,47.08952229999977,47.08952229999977,,002,P021,2025_May_08_1143,ConditionRich,2021.2.3,59.92071291266705,
16.75,20.0,41,0.0,Stimuli/Blank.png,0,0.0,0.0,0,8,8,8,,,,,,,,,,,,,16.763482100000147,0.013482100000146602,None,47.84018680000008,47.84018680000008,47.84018680000008,47.84018680000008,47.84018680000008,47.84018680000008,47.84018680000008,47.84018680000008,47.84018680000008,47.84018680000008,,002,P021,2025_May_08_1143,ConditionRich,2021.2.3,59.92071291266705,
20.0,20.75,28,0.75,Stimuli/P009/things_face_05s.jpg,0,0.0,0.0,0,9,9,9,,,,,,,,,,,,,19.999502900000152,-0.0004970999998477055,None,51.07638959999986,51.07638959999986,51.07638959999986,51.07638959999986,51.07638959999986,51.07638959999986,51.07638959999986,51.07638959999986,51.07638959999986,51.07638959999986,,002,P021,2025_May_08_1143,ConditionRich,2021.2.3,59.92071291266705,
20.75,24.0,41,0.0,Stimuli/Blank.png,0,0.0,0.0,0,10,10,10,,,,,,,,,,,,,20.749652699999388,-0.00034730000061244937,None,51.82705900000019,51.82705900000019,51.82705900000019,51.82705900000019,51.82705900000019,51.82705900000019,51.82705900000019,51.82705900000019,51.82705900000019,51.82705900000019,,002,P021,2025_May_08_1143,ConditionRich,2021.2.3,59.92071291266705,
24.0,24.75,20,0.75,Stimuli/P009/sun_ddsiwinthvyejghq.jpg,0,0.0,0.0,0,11,11,11,,,,,,,,,,,,,24.00350519999938,0.003505199999381148,None,55.09662610000032,55.09662610000032,55.09662610000032,55.09662610000032,55.09662610000032,55.09662610000032,55.09662610000032,55.09662610000032,55.09662610000032,55.09662610000032,,002,P021,2025_May_08_1143,ConditionRich,2021.2.3,59.92071291266705,
24.75,28.0,41,0.0,Stimuli/Blank.png,0,0.0,0.0,0,12,12,12,,,,,,,,,,,,,24.77365269999973,0.02365269999972952,None,55.863993500000106,55.863993500000106,55.863993500000106,55.863993500000106,55.863993500000106,55.863993500000106,55.863993500000106,55.863993500000106,55.863993500000106,55.863993500000106,,002,P021,2025_May_08_1143,ConditionRich,2021.2.3,59.92071291266705,
28.0,28.75,15,0.75,Stimuli/P009/sun_boryivbddrnarrbo.jpg,0,0.0,0.0,0,13,13,13,,,,,,,,,,,,,28.024066899999525,0.02406689999952505,None,59.11684530000002,59.11684530000002,59.11684530000002,59.11684530000002,59.11684530000002,59.11684530000002,59.11684530000002,59.11684530000002,59.11684530000002,59.11684530000002,,002,P021,2025_May_08_1143,ConditionRich,2021.2.3,59.92071291266705,
28.75,32.0,41,0.0,Stimuli/Blank.png,0,0.0,0.0,0,14,14,14,,,,,,,,,,,,,28.77351120000003,0.02351120000002993,None,59.85085549999985,59.85085549999985,59.85085549999985,59.85085549999985,59.85085549999985,59.85085549999985,59.85085549999985,59.85085549999985,59.85085549999985,59.85085549999985,,002,P021,2025_May_08_1143,ConditionRich,2021.2.3,59.92071291266705,
32.0,32.75,1,0.75,Stimuli/P009/sun_abqdlumenyzawlme.jpg,0,0.0,0.0,0,15,15,15,,,,,,,,,,,,,32.01091219999944,0.010912199999438599,None,63.10370580000017,63.10370580000017,63.10370580000017,63.10370580000017,63.10370580000017,63.10370580000017,63.10370580000017,63.10370580000017,63.10370580000017,63.10370580000017,,002,P021,2025_May_08_1143,ConditionRich,2021.2.3,59.92071291266705,
32.75,36.0,41,0.0,Stimuli/Blank.png,0,0.0,0.0,0,16,16,16,,,,,,,,,,,,,32.777093599999716,0.02709359999971639,None,63.85438869999962,63.85438869999962,63.85438869999962,63.85438869999962,63.85438869999962,63.85438869999962,63.85438869999962,63.85438869999962,63.85438869999962,63.85438869999962,,002,P021,2025_May_08_1143,ConditionRich,2021.2.3,59.92071291266705,
36.0,36.75,11,0.75,Stimuli/P009/sun_bfyvfqiimvdaxlqn.jpg,0,0.0,0.0,0,17,17,17,,,,,,,,,,,,,36.01395769999999,0.013957699999991746,None,67.0905673999996,67.0905673999996,67.0905673999996,67.0905673999996,67.0905673999996,67.0905673999996,67.0905673999996,67.0905673999996,67.0905673999996,67.0905673999996,,002,P021,2025_May_08_1143,ConditionRich,2021.2.3,59.92071291266705,
36.75,40.0,41,0.0,Stimuli/Blank.png,0,0.0,0.0,0,18,18,18,,,,,,,,,,,,,36.76375209999969,0.013752099999692291,None,67.84122690000004,67.84122690000004,67.84122690000004,67.84122690000004,67.84122690000004,67.84122690000004,67.84122690000004,67.84122690000004,67.84122690000004,67.84122690000004,,002,P021,2025_May_08_1143,ConditionRich,2021.2.3,59.92071291266705,
40.0,40.75,35,0.75,Stimuli/P009/things_mushroom_05n.jpg,0,0.0,0.0,0,19,19,19,,,,,,,,,,,,,40.0004342000002,0.00043420000019978033,None,71.07743049999954,71.07743049999954,71.07743049999954,71.07743049999954,71.07743049999954,71.07743049999954,71.07743049999954,71.07743049999954,71.07743049999954,71.07743049999954,,002,P021,2025_May_08_1143,ConditionRich,2021.2.3,59.92071291266705,
40.75,44.0,41,0.0,Stimuli/Blank.png,0,0.0,0.0,0,20,20,20,,,,,,,,,,,,,40.75128559999939,0.0012855999993917067,None,71.82809859999998,71.82809859999998,71.82809859999998,71.82809859999998,71.82809859999998,71.82809859999998,71.82809859999998,71.82809859999998,71.82809859999998,71.82809859999998,,002,P021,2025_May_08_1143,ConditionRich,2021.2.3,59.92071291266705,
44.0,44.75,39,0.75,Stimuli/P009/things_tiara_05s.jpg,0,0.0,0.0,0,21,21,21,,,,,,,,,,,,,44.004264399999556,0.00426439999955619,None,75.08102969999982,75.08102969999982,75.08102969999982,75.08102969999982,75.08102969999982,75.08102969999982,75.08102969999982,75.08102969999982,75.08102969999982,75.08102969999982,,002,P021,2025_May_08_1143,ConditionRich,2021.2.3,59.92071291266705,
44.75,48.0,41,0.0,Stimuli/Blank.png,1,0.25,1.0,0,22,22,22,,,,,,,,,,,,,44.75478999999996,0.004789999999957217,1,75.83163859999968,75.83163859999968,75.83163859999968,75.83163859999968,75.83163859999968,75.83163859999968,76.06529039999987,76.81584139999995,75.83163859999968,75.83163859999968,0.6837263999996139,002,P021,2025_May_08_1143,ConditionRich,2021.2.3,59.92071291266705,
48.0,48.75,17,0.75,Stimuli/P009/sun_brkrfjpyfglmigkk.jpg,0,0.0,0.0,0,23,23,23,,,,,,,,,,,,,48.00729339999998,0.0072933999999804655,None,79.08454879999954,79.08454879999954,79.08454879999954,79.08454879999954,79.08454879999954,79.08454879999954,79.08454879999954,79.08454879999954,79.08454879999954,79.08454879999954,,002,P021,2025_May_08_1143,ConditionRich,2021.2.3,59.92071291266705,
48.75,52.0,41,0.0,Stimuli/Blank.png,0,0.0,0.0,0,24,24,24,,,,,,,,,,,,,48.75840199999948,0.008401999999477994,None,79.83518499999991,79.83518499999991,79.83518499999991,79.83518499999991,79.83518499999991,79.83518499999991,79.83518499999991,79.83518499999991,79.83518499999991,79.83518499999991,,002,P021,2025_May_08_1143,ConditionRich,2021.2.3,59.92071291266705,
52.0,52.75,32,0.75,Stimuli/P009/things_hawk_05s.jpg,0,0.0,0.0,0,25,25,25,,,,,,,,,,,,,52.01187839999966,0.01187839999965945,None,83.08806490000006,83.08806490000006,83.08806490000006,83.08806490000006,83.08806490000006,83.08806490000006,83.08806490000006,83.08806490000006,83.08806490000006,83.08806490000006,,002,P021,2025_May_08_1143,ConditionRich,2021.2.3,59.92071291266705,
52.75,56.0,41,0.0,Stimuli/Blank.png,0,0.0,0.0,0,26,26,26,,,,,,,,,,,,,52.762955899999724,0.012955899999724352,None,83.83872880000035,83.83872880000035,83.83872880000035,83.83872880000035,83.83872880000035,83.83872880000035,83.83872880000035,83.83872880000035,83.83872880000035,83.83872880000035,,002,P021,2025_May_08_1143,ConditionRich,2021.2.3,59.92071291266705,
56.0,56.75,16,0.75,Stimuli/P009/sun_bqpyqljaflidcauh.jpg,0,0.0,0.0,0,27,27,27,,,,,,,,,,,,,55.998785300000236,-0.0012146999997639796,None,87.09167559999969,87.09167559999969,87.09167559999969,87.09167559999969,87.09167559999969,87.09167559999969,87.09167559999969,87.09167559999969,87.09167559999969,87.09167559999969,,002,P021,2025_May_08_1143,ConditionRich,2021.2.3,59.92071291266705,
56.75,60.0,41,0.0,Stimuli/Blank.png,1,2.25,3.0,0,28,28,28,,,,,,,,,,,,,56.76513189999969,0.015131899999687448,1,87.84227139999985,87.84227139999985,87.84227139999985,87.84227139999985,87.84227139999985,87.84227139999985,90.07757979999951,90.8282435000001,87.84227139999985,87.84227139999985,2.988040500000352,002,P021,2025_May_08_1143,ConditionRich,2021.2.3,59.92071291266705,
60.0,60.75,13,0.75,Stimuli/P009/sun_bjimvgwadfodioes.jpg,0,0.0,0.0,0,29,29,29,,,,,,,,,,,,,60.00156539999989,0.00156539999989036,None,91.07847990000027,91.07847990000027,91.07847990000027,91.07847990000027,91.07847990000027,91.07847990000027,91.07847990000027,91.07847990000027,91.07847990000027,91.07847990000027,,002,P021,2025_May_08_1143,ConditionRich,2021.2.3,59.92071291266705,
60.75,64.0,41,0.0,Stimuli/Blank.png,0,0.0,0.0,0,30,30,30,,,,,,,,,,,,,60.751726399999825,0.0017263999998249346,None,91.82912769999984,91.82912769999984,91.82912769999984,91.82912769999984,91.82912769999984,91.82912769999984,91.82912769999984,91.82912769999984,91.82912769999984,91.82912769999984,,002,P021,2025_May_08_1143,ConditionRich,2021.2.3,59.92071291266705,
64.0,64.75,7,0.75,Stimuli/P009/sun_apiogxmvvzfmtsmj.jpg,1,0.0,0.75,0,31,31,31,,,,,,,,,,,,,64.00558509999973,0.005585099999734666,1,95.08200949999991,95.08200949999991,95.08200949999991,95.08200949999991,95.08200949999991,95.08200949999991,95.08200949999991,95.81604259999949,95.08200949999991,95.08200949999991,0.5992462000003798,002,P021,2025_May_08_1143,ConditionRich,2021.2.3,59.92071291266705,
64.75,68.0,41,0.0,Stimuli/Blank.png,0,0.0,0.0,0,32,32,32,,,,,,,,,,,,,64.75779390000025,0.007793900000251597,None,95.84936749999997,95.84936749999997,95.84936749999997,95.84936749999997,95.84936749999997,95.84936749999997,95.84936749999997,95.84936749999997,95.84936749999997,95.84936749999997,,002,P021,2025_May_08_1143,ConditionRich,2021.2.3,59.92071291266705,
68.0,68.75,10,0.75,Stimuli/P009/sun_bdkttewvyfdarikm.jpg,0,0.0,0.0,0,33,33,33,,,,,,,,,,,,,68.02561689999948,0.025616899999477027,None,99.11893429999964,99.11893429999964,99.11893429999964,99.11893429999964,99.11893429999964,99.11893429999964,99.11893429999964,99.11893429999964,99.11893429999964,99.11893429999964,,002,P021,2025_May_08_1143,ConditionRich,2021.2.3,59.92071291266705,
68.75,72.0,41,0.0,Stimuli/Blank.png,0,0.0,0.0,0,34,34,34,,,,,,,,,,,,,68.77760880000005,0.027608800000052724,None,99.86955209999996,99.86955209999996,99.86955209999996,99.86955209999996,99.86955209999996,99.86955209999996,99.86955209999996,99.86955209999996,99.86955209999996,99.86955209999996,,002,P021,2025_May_08_1143,ConditionRich,2021.2.3,59.92071291266705,
72.0,72.75,19,0.75,Stimuli/P009/sun_bwvfnogmotsvhofs.jpg,0,0.0,0.0,0,35,35,35,,,,,,,,,,,,,72.02850919999946,0.028509199999461998,None,103.10577910000029,103.10577910000029,103.10577910000029,103.10577910000029,103.10577910000029,103.10577910000029,103.10577910000029,103.10577910000029,103.10577910000029,103.10577910000029,,002,P021,2025_May_08_1143,ConditionRich,2021.2.3,59.92071291266705,
72.75,76.0,41,0.0,Stimuli/Blank.png,0,0.0,0.0,0,36,36,36,,,,,,,,,,,,,72.76391969999986,0.013919699999860313,None,103.85646540000016,103.85646540000016,103.85646540000016,103.85646540000016,103.85646540000016,103.85646540000016,103.85646540000016,103.85646540000016,103.85646540000016,103.85646540000016,,002,P021,2025_May_08_1143,ConditionRich,2021.2.3,59.92071291266705,
76.0,76.75,22,0.75,Stimuli/P009/things_butterfly_05s.jpg,0,0.0,0.0,0,37,37,37,,,,,,,,,,,,,76.0152306,0.01523059999999532,None,107.10934579999957,107.10934579999957,107.10934579999957,107.10934579999957,107.10934579999957,107.10934579999957,107.10934579999957,107.10934579999957,107.10934579999957,107.10934579999957,,002,P021,2025_May_08_1143,ConditionRich,2021.2.3,59.92071291266705,
76.75,80.0,41,0.0,Stimuli/Blank.png,0,0.0,0.0,0,38,38,38,,,,,,,,,,,,,76.76875029999974,0.018750299999737763,None,107.85999540000012,107.85999540000012,107.85999540000012,107.85999540000012,107.85999540000012,107.85999540000012,107.85999540000012,107.85999540000012,107.85999540000012,107.85999540000012,,002,P021,2025_May_08_1143,ConditionRich,2021.2.3,59.92071291266705,
80.0,80.75,8,0.75,Stimuli/P009/sun_batcnoizlkeiqdtx.jpg,0,0.0,0.0,0,39,39,39,,,,,,,,,,,,,80.01951980000013,0.019519800000125542,None,111.09618450000016,111.09618450000016,111.09618450000016,111.09618450000016,111.09618450000016,111.09618450000016,111.09618450000016,111.09618450000016,111.09618450000016,111.09618450000016,,002,P021,2025_May_08_1143,ConditionRich,2021.2.3,59.92071291266705,
80.75,84.0,41,0.0,Stimuli/Blank.png,0,0.0,0.0,0,40,40,40,,,,,,,,,,,,,80.75426270000025,0.004262700000253972,None,111.84683909999967,111.84683909999967,111.84683909999967,111.84683909999967,111.84683909999967,111.84683909999967,111.84683909999967,111.84683909999967,111.84683909999967,111.84683909999967,,002,P021,2025_May_08_1143,ConditionRich,2021.2.3,59.92071291266705,
84.0,100.0,0,0.0,Stimuli/Blank.png,1,13.0,13.75,0,41,41,41,,,,,,,,,,,,,84.0226431000001,0.02264310000009573,1,115.09971700000006,115.09971700000006,115.09971700000006,115.09971700000006,115.09971700000006,115.09971700000006,128.0779107999997,128.82855800000016,115.09971700000006,115.09971700000006,13.45175990000007,002,P021,2025_May_08_1143,ConditionRich,2021.2.3,59.92071291266705,
100.0,100.75,2,0.75,Stimuli/P009/sun_acvloibbxiqpiwnv.jpg,0,0.0,0.0,0,42,42,42,,,,,,,,,,,,,100.00353009999981,0.0035300999998071347,None,131.08055779999995,131.08055779999995,131.08055779999995,131.08055779999995,131.08055779999995,131.08055779999995,131.08055779999995,131.08055779999995,131.08055779999995,131.08055779999995,,002,P021,2025_May_08_1143,ConditionRich,2021.2.3,59.92071291266705,
100.75,104.0,41,0.0,Stimuli/Blank.png,0,0.0,0.0,0,43,43,43,,,,,,,,,,,,,100.75376950000009,0.003769500000089465,None,131.8311948999999,131.8311948999999,131.8311948999999,131.8311948999999,131.8311948999999,131.8311948999999,131.8311948999999,131.8311948999999,131.8311948999999,131.8311948999999,,002,P021,2025_May_08_1143,ConditionRich,2021.2.3,59.92071291266705,
104.0,104.75,38,0.75,Stimuli/P009/things_roadsweeper_05s.jpg,0,0.0,0.0,0,44,44,44,,,,,,,,,,,,,104.00755620000018,0.007556200000180979,None,135.10075499999948,135.10075499999948,135.10075499999948,135.10075499999948,135.10075499999948,135.10075499999948,135.10075499999948,135.10075499999948,135.10075499999948,135.10075499999948,,002,P021,2025_May_08_1143,ConditionRich,2021.2.3,59.92071291266705,
104.75,108.0,41,0.0,Stimuli/Blank.png,0,0.0,0.0,0,45,45,45,,,,,,,,,,,,,104.77399549999973,0.023995499999728054,None,135.85141169999952,135.85141169999952,135.85141169999952,135.85141169999952,135.85141169999952,135.85141169999952,135.85141169999952,135.85141169999952,135.85141169999952,135.85141169999952,,002,P021,2025_May_08_1143,ConditionRich,2021.2.3,59.92071291266705,
108.0,108.75,40,0.75,Stimuli/P009/things_woman_05s.jpg,1,0.0,0.75,0,46,46,46,,,,,,,,,,,,,108.01013559999956,0.010135599999557598,1,139.10431059999974,139.10431059999974,139.10431059999974,139.10431059999974,139.10431059999974,139.10431059999974,139.10431059999974,139.82164610000018,139.10431059999974,139.10431059999974,0.5900123000001258,002,P021,2025_May_08_1143,ConditionRich,2021.2.3,59.92071291266705,
108.75,112.0,41,0.0,Stimuli/Blank.png,0,0.0,0.0,0,47,47,47,,,,,,,,,,,,,108.77839359999962,0.028393599999617436,None,139.8549739,139.8549739,139.8549739,139.8549739,139.8549739,139.8549739,139.8549739,139.8549739,139.8549739,139.8549739,,002,P021,2025_May_08_1143,ConditionRich,2021.2.3,59.92071291266705,
112.0,112.75,29,0.75,Stimuli/P009/things_fingerprint_05s.jpg,0,0.0,0.0,0,48,48,48,,,,,,,,,,,,,112.01473089999945,0.01473089999944932,None,143.0911513000001,143.0911513000001,143.0911513000001,143.0911513000001,143.0911513000001,143.0911513000001,143.0911513000001,143.0911513000001,143.0911513000001,143.0911513000001,,002,P021,2025_May_08_1143,ConditionRich,2021.2.3,59.92071291266705,
112.75,116.0,41,0.0,Stimuli/Blank.png,0,0.0,0.0,0,49,49,49,,,,,,,,,,,,,112.76595219999945,0.015952199999446748,None,143.8418415999995,143.8418415999995,143.8418415999995,143.8418415999995,143.8418415999995,143.8418415999995,143.8418415999995,143.8418415999995,143.8418415999995,143.8418415999995,,002,P021,2025_May_08_1143,ConditionRich,2021.2.3,59.92071291266705,
116.0,116.75,23,0.75,Stimuli/P009/things_charger_05s.jpg,0,0.0,0.0,0,50,50,50,,,,,,,,,,,,,116.0033483999996,0.003348399999595131,None,147.09470789999978,147.09470789999978,147.09470789999978,147.09470789999978,147.09470789999978,147.09470789999978,147.09470789999978,147.09470789999978,147.09470789999978,147.09470789999978,,002,P021,2025_May_08_1143,ConditionRich,2021.2.3,59.92071291266705,
116.75,120.0,41,0.0,Stimuli/Blank.png,0,0.0,0.0,0,51,51,51,,,,,,,,,,,,,116.76834589999999,0.018345899999985704,None,147.8453655000003,147.8453655000003,147.8453655000003,147.8453655000003,147.8453655000003,147.8453655000003,147.8453655000003,147.8453655000003,147.8453655000003,147.8453655000003,,002,P021,2025_May_08_1143,ConditionRich,2021.2.3,59.92071291266705,
120.0,120.75,21,0.75,Stimuli/P009/things_boy_05s.jpg,0,0.0,0.0,0,52,52,52,,,,,,,,,,,,,120.00462770000013,0.004627700000128243,None,151.09823929999948,151.09823929999948,151.09823929999948,151.09823929999948,151.09823929999948,151.09823929999948,151.09823929999948,151.09823929999948,151.09823929999948,151.09823929999948,,002,P021,2025_May_08_1143,ConditionRich,2021.2.3,59.92071291266705,
120.75,124.0,41,0.0,Stimuli/Blank.png,0,0.0,0.0,0,53,53,53,,,,,,,,,,,,,120.77163019999989,0.021630199999890465,None,151.8488765000002,151.8488765000002,151.8488765000002,151.8488765000002,151.8488765000002,151.8488765000002,151.8488765000002,151.8488765000002,151.8488765000002,151.8488765000002,,002,P021,2025_May_08_1143,ConditionRich,2021.2.3,59.92071291266705,
124.0,124.75,18,0.75,Stimuli/P009/sun_bwjdahsxcqepqqbm.jpg,0,0.0,0.0,0,54,54,54,,,,,,,,,,,,,124.00848919999953,0.008489199999530683,None,155.10178389999965,155.10178389999965,155.10178389999965,155.10178389999965,155.10178389999965,155.10178389999965,155.10178389999965,155.10178389999965,155.10178389999965,155.10178389999965,,002,P021,2025_May_08_1143,ConditionRich,2021.2.3,59.92071291266705,
124.75,128.0,41,0.0,Stimuli/Blank.png,0,0.0,0.0,0,55,55,55,,,,,,,,,,,,,124.77495569999974,0.02495569999973668,None,155.8524454999997,155.8524454999997,155.8524454999997,155.8524454999997,155.8524454999997,155.8524454999997,155.8524454999997,155.8524454999997,155.8524454999997,155.8524454999997,,002,P021,2025_May_08_1143,ConditionRich,2021.2.3,59.92071291266705,
128.0,128.75,36,0.75,Stimuli/P009/things_pelican_05s.jpg,0,0.0,0.0,0,56,56,56,,,,,,,,,,,,,128.01375589999952,0.013755899999523535,None,159.10533159999977,159.10533159999977,159.10533159999977,159.10533159999977,159.10533159999977,159.10533159999977,159.10533159999977,159.10533159999977,159.10533159999977,159.10533159999977,,002,P021,2025_May_08_1143,ConditionRich,2021.2.3,59.92071291266705,
128.75,132.0,41,0.0,Stimuli/Blank.png,1,1.25,2.0,0,57,57,57,,,,,,,,,,,,,128.77852600000006,0.02852600000005623,1,159.85598279999977,159.85598279999977,159.85598279999977,159.85598279999977,159.85598279999977,159.85598279999977,161.0904115000003,161.84106559999964,159.85598279999977,159.85598279999977,1.8444814000004044,002,P021,2025_May_08_1143,ConditionRich,2021.2.3,59.92071291266705,
132.0,132.75,6,0.75,Stimuli/P009/sun_amkrwcyvinmsylsz.jpg,0,0.0,0.0,0,58,58,58,,,,,,,,,,,,,132.01787749999949,0.017877499999485735,None,163.10888239999986,163.10888239999986,163.10888239999986,163.10888239999986,163.10888239999986,163.10888239999986,163.10888239999986,163.10888239999986,163.10888239999986,163.10888239999986,,002,P021,2025_May_08_1143,ConditionRich,2021.2.3,59.92071291266705,
132.75,136.0,41,0.0,Stimuli/Blank.png,0,0.0,0.0,0,59,59,59,,,,,,,,,,,,,132.76543149999998,0.01543149999997695,None,163.84284500000012,163.84284500000012,163.84284500000012,163.84284500000012,163.84284500000012,163.84284500000012,163.84284500000012,163.84284500000012,163.84284500000012,163.84284500000012,,002,P021,2025_May_08_1143,ConditionRich,2021.2.3,59.92071291266705,
136.0,136.75,4,0.75,Stimuli/P009/sun_afkzdukwewwzqtmr.jpg,0,0.0,0.0,0,60,60,60,,,,,,,,,,,,,136.00175070000023,0.001750700000229699,None,167.07903110000007,167.07903110000007,167.07903110000007,167.07903110000007,167.07903110000007,167.07903110000007,167.07903110000007,167.07903110000007,167.07903110000007,167.07903110000007,,002,P021,2025_May_08_1143,ConditionRich,2021.2.3,59.92071291266705,
136.75,140.0,41,0.0,Stimuli/Blank.png,0,0.0,0.0,0,61,61,61,,,,,,,,,,,,,136.75288339999952,0.0028833999995185877,None,167.82970810000006,167.82970810000006,167.82970810000006,167.82970810000006,167.82970810000006,167.82970810000006,167.82970810000006,167.82970810000006,167.82970810000006,167.82970810000006,,002,P021,2025_May_08_1143,ConditionRich,2021.2.3,59.92071291266705,
140.0,140.75,30,0.75,Stimuli/P009/things_fire_05s.jpg,0,0.0,0.0,0,62,62,62,,,,,,,,,,,,,140.00525689999995,0.005256899999949383,None,171.09925629999998,171.09925629999998,171.09925629999998,171.09925629999998,171.09925629999998,171.09925629999998,171.09925629999998,171.09925629999998,171.09925629999998,171.09925629999998,,002,P021,2025_May_08_1143,ConditionRich,2021.2.3,59.92071291266705,
140.75,144.0,41,0.0,Stimuli/Blank.png,0,0.0,0.0,0,63,63,63,,,,,,,,,,,,,140.77316379999957,0.023163799999565526,None,171.8499339,171.8499339,171.8499339,171.8499339,171.8499339,171.8499339,171.8499339,171.8499339,171.8499339,171.8499339,,002,P021,2025_May_08_1143,ConditionRich,2021.2.3,59.92071291266705,
144.0,144.75,3,0.75,Stimuli/P009/sun_aewgwsmvsgzleqhw.jpg,0,0.0,0.0,0,64,64,64,,,,,,,,,,,,,144.00872269999945,0.008722699999452743,None,175.0861471999997,175.0861471999997,175.0861471999997,175.0861471999997,175.0861471999997,175.0861471999997,175.0861471999997,175.0861471999997,175.0861471999997,175.0861471999997,,002,P021,2025_May_08_1143,ConditionRich,2021.2.3,59.92071291266705,
144.75,148.0,41,0.0,Stimuli/Blank.png,0,0.0,0.0,0,65,65,65,,,,,,,,,,,,,144.7593471,0.009347100000013597,None,175.83678679999957,175.83678679999957,175.83678679999957,175.83678679999957,175.83678679999957,175.83678679999957,175.83678679999957,175.83678679999957,175.83678679999957,175.83678679999957,,002,P021,2025_May_08_1143,ConditionRich,2021.2.3,59.92071291266705,
148.0,148.75,34,0.75,Stimuli/P009/things_man_05s.jpg,0,0.0,0.0,0,66,66,66,,,,,,,,,,,,,148.01226709999992,0.012267099999917264,None,179.0896598999998,179.0896598999998,179.0896598999998,179.0896598999998,179.0896598999998,179.0896598999998,179.0896598999998,179.0896598999998,179.0896598999998,179.0896598999998,,002,P021,2025_May_08_1143,ConditionRich,2021.2.3,59.92071291266705,
148.75,152.0,41,0.0,Stimuli/Blank.png,1,1.25,2.0,0,67,67,67,,,,,,,,,,,,,148.76340359999995,0.013403599999946891,1,179.84032810000008,179.84032810000008,179.84032810000008,179.84032810000008,179.84032810000008,179.84032810000008,181.07476320000023,181.82540640000025,179.84032810000008,179.84032810000008,1.7299336000005496,002,P021,2025_May_08_1143,ConditionRich,2021.2.3,59.92071291266705,
152.0,152.75,31,0.75,Stimuli/P009/things_girl_05s.jpg,0,0.0,0.0,0,68,68,68,,,,,,,,,,,,,151.99932369999988,-0.0006763000001228647,None,183.0765234999999,183.0765234999999,183.0765234999999,183.0765234999999,183.0765234999999,183.0765234999999,183.0765234999999,183.0765234999999,183.0765234999999,183.0765234999999,,002,P021,2025_May_08_1143,ConditionRich,2021.2.3,59.92071291266705,
152.75,156.0,41,0.0,Stimuli/Blank.png,0,0.0,0.0,0,69,69,69,,,,,,,,,,,,,152.7499018999997,-9.810000028664945e-05,None,183.8271851999998,183.8271851999998,183.8271851999998,183.8271851999998,183.8271851999998,183.8271851999998,183.8271851999998,183.8271851999998,183.8271851999998,183.8271851999998,,002,P021,2025_May_08_1143,ConditionRich,2021.2.3,59.92071291266705,
156.0,156.75,25,0.75,Stimuli/P009/things_clothespin_05s.jpg,0,0.0,0.0,0,70,70,70,,,,,,,,,,,,,156.00409659999968,0.004096599999684258,None,187.09673889999976,187.09673889999976,187.09673889999976,187.09673889999976,187.09673889999976,187.09673889999976,187.09673889999976,187.09673889999976,187.09673889999976,187.09673889999976,,002,P021,2025_May_08_1143,ConditionRich,2021.2.3,59.92071291266705,
156.75,160.0,41,0.0,Stimuli/Blank.png,1,0.25,1.0,0,71,71,71,,,,,,,,,,,,,156.7727979000001,0.02279790000011417,1,187.8641058000003,187.8641058000003,187.8641058000003,187.8641058000003,187.8641058000003,187.8641058000003,188.09767039999952,188.8483156000002,187.8641058000003,187.8641058000003,0.8332662000002529,002,P021,2025_May_08_1143,ConditionRich,2021.2.3,59.92071291266705,
160.0,160.75,12,0.75,Stimuli/P009/sun_birmwgkdtrlevcaf.jpg,0,0.0,0.0,0,72,72,72,,,,,,,,,,,,,160.02303219999976,0.02303219999976136,None,191.1002784000002,191.1002784000002,191.1002784000002,191.1002784000002,191.1002784000002,191.1002784000002,191.1002784000002,191.1002784000002,191.1002784000002,191.1002784000002,,002,P021,2025_May_08_1143,ConditionRich,2021.2.3,59.92071291266705,
160.75,164.0,41,0.0,Stimuli/Blank.png,0,0.0,0.0,0,73,73,73,,,,,,,,,,,,,160.75756959999944,0.007569599999442289,None,191.83428170000025,191.83428170000025,191.83428170000025,191.83428170000025,191.83428170000025,191.83428170000025,191.83428170000025,191.83428170000025,191.83428170000025,191.83428170000025,,002,P021,2025_May_08_1143,ConditionRich,2021.2.3,59.92071291266705,
164.0,164.75,26,0.75,Stimuli/P009/things_cookie_sheet_05s.jpg,0,0.0,0.0,0,74,74,74,,,,,,,,,,,,,164.00979740000002,0.009797400000024936,None,195.1038708999995,195.1038708999995,195.1038708999995,195.1038708999995,195.1038708999995,195.1038708999995,195.1038708999995,195.1038708999995,195.1038708999995,195.1038708999995,,002,P021,2025_May_08_1143,ConditionRich,2021.2.3,59.92071291266705,
164.75,168.0,41,0.0,Stimuli/Blank.png,0,0.0,0.0,0,75,75,75,,,,,,,,,,,,,164.77807459999985,0.0280745999998544,None,195.85449470000003,195.85449470000003,195.85449470000003,195.85449470000003,195.85449470000003,195.85449470000003,195.85449470000003,195.85449470000003,195.85449470000003,195.85449470000003,,002,P021,2025_May_08_1143,ConditionRich,2021.2.3,59.92071291266705,
168.0,168.75,24,0.75,Stimuli/P009/things_cigar_05n.jpg,0,0.0,0.0,0,76,76,76,,,,,,,,,,,,,168.01434019999942,0.01434019999942393,None,199.0906955999999,199.0906955999999,199.0906955999999,199.0906955999999,199.0906955999999,199.0906955999999,199.0906955999999,199.0906955999999,199.0906955999999,199.0906955999999,,002,P021,2025_May_08_1143,ConditionRich,2021.2.3,59.92071291266705,
168.75,172.0,41,0.0,Stimuli/Blank.png,0,0.0,0.0,0,77,77,77,,,,,,,,,,,,,168.76430590000018,0.014305900000181282,None,199.8413604999996,199.8413604999996,199.8413604999996,199.8413604999996,199.8413604999996,199.8413604999996,199.8413604999996,199.8413604999996,199.8413604999996,199.8413604999996,,002,P021,2025_May_08_1143,ConditionRich,2021.2.3,59.92071291266705,
172.0,172.75,9,0.75,Stimuli/P009/sun_bdjkvwqqqycuixtc.jpg,0,0.0,0.0,0,78,78,78,,,,,,,,,,,,,172.00325539999994,0.00325539999994362,None,203.09430259999954,203.09430259999954,203.09430259999954,203.09430259999954,203.09430259999954,203.09430259999954,203.09430259999954,203.09430259999954,203.09430259999954,203.09430259999954,,002,P021,2025_May_08_1143,ConditionRich,2021.2.3,59.92071291266705,
172.75,176.0,41,0.0,Stimuli/Blank.png,1,0.25,1.0,0,79,79,79,,,,,,,,,,,,,172.7681348999995,0.018134899999495246,1,203.84490189999997,203.84490189999997,203.84490189999997,203.84490189999997,203.84490189999997,203.84490189999997,204.07846020000034,204.82914150000033,203.84490189999997,203.84490189999997,0.7514425999997911,002,P021,2025_May_08_1143,ConditionRich,2021.2.3,59.92071291266705,
176.0,176.75,5,0.75,Stimuli/P009/sun_akqvdmuauoxeafrj.jpg,0,0.0,0.0,0,80,80,80,,,,,,,,,,,,,176.00436999999965,0.004369999999653373,None,207.08108830000037,207.08108830000037,207.08108830000037,207.08108830000037,207.08108830000037,207.08108830000037,207.08108830000037,207.08108830000037,207.08108830000037,207.08108830000037,,002,P021,2025_May_08_1143,ConditionRich,2021.2.3,59.92071291266705,
176.75,180.0,41,0.0,Stimuli/Blank.png,0,0.0,0.0,0,81,81,81,,,,,,,,,,,,,176.75475939999978,0.004759399999784364,None,207.83175779999965,207.83175779999965,207.83175779999965,207.83175779999965,207.83175779999965,207.83175779999965,207.83175779999965,207.83175779999965,207.83175779999965,207.83175779999965,,002,P021,2025_May_08_1143,ConditionRich,2021.2.3,59.92071291266705,
180.0,196.0,0,0.0,Stimuli/Blank.png,1,3.0,3.75,0,82,82,82,,,,,,,,,,,,,180.0078728999997,0.00787289999971108,1,211.08471240000017,211.08471240000017,211.08471240000017,211.08471240000017,211.08471240000017,211.08471240000017,214.07060720000027,214.82130750000033,211.08471240000017,211.08471240000017,3.471552099999826,002,P021,2025_May_08_1143,ConditionRich,2021.2.3,59.92071291266705,
196.0,196.75,7,0.75,Stimuli/P009/sun_apiogxmvvzfmtsmj.jpg,0,0.0,0.0,0,83,83,83,,,,,,,,,,,,,196.00563489999968,0.005634899999677145,None,227.0820764,227.0820764,227.0820764,227.0820764,227.0820764,227.0820764,227.0820764,227.0820764,227.0820764,227.0820764,,002,P021,2025_May_08_1143,ConditionRich,2021.2.3,59.92071291266705,
196.75,200.0,41,0.0,Stimuli/Blank.png,0,0.0,0.0,0,84,84,84,,,,,,,,,,,,,196.75549520000004,0.005495200000041223,None,227.83277089999956,227.83277089999956,227.83277089999956,227.83277089999956,227.83277089999956,227.83277089999956,227.83277089999956,227.83277089999956,227.83277089999956,227.83277089999956,,002,P021,2025_May_08_1143,ConditionRich,2021.2.3,59.92071291266705,
200.0,200.75,27,0.75,Stimuli/P009/things_curling_iron_05s.jpg,0,0.0,0.0,0,85,85,85,,,,,,,,,,,,,200.00838039999962,0.008380399999623478,None,231.08568170000035,231.08568170000035,231.08568170000035,231.08568170000035,231.08568170000035,231.08568170000035,231.08568170000035,231.08568170000035,231.08568170000035,231.08568170000035,,002,P021,2025_May_08_1143,ConditionRich,2021.2.3,59.92071291266705,
200.75,204.0,41,0.0,Stimuli/Blank.png,0,0.0,0.0,0,86,86,86,,,,,,,,,,,,,200.75989149999987,0.009891499999866937,None,231.83640099999957,231.83640099999957,231.83640099999957,231.83640099999957,231.83640099999957,231.83640099999957,231.83640099999957,231.83640099999957,231.83640099999957,231.83640099999957,,002,P021,2025_May_08_1143,ConditionRich,2021.2.3,59.92071291266705,
204.0,204.75,40,0.75,Stimuli/P009/things_woman_05s.jpg,0,0.0,0.0,0,87,87,87,,,,,,,,,,,,,204.01338289999967,0.013382899999669462,None,235.10586710000007,235.10586710000007,235.10586710000007,235.10586710000007,235.10586710000007,235.10586710000007,235.10586710000007,235.10586710000007,235.10586710000007,235.10586710000007,,002,P021,2025_May_08_1143,ConditionRich,2021.2.3,59.92071291266705,
204.75,208.0,41,0.0,Stimuli/Blank.png,0,0.0,0.0,0,88,88,88,,,,,,,,,,,,,204.77984109999943,0.0298410999994303,None,235.8565435999999,235.8565435999999,235.8565435999999,235.8565435999999,235.8565435999999,235.8565435999999,235.8565435999999,235.8565435999999,235.8565435999999,235.8565435999999,,002,P021,2025_May_08_1143,ConditionRich,2021.2.3,59.92071291266705,
208.0,208.75,35,0.75,Stimuli/P009/things_mushroom_05n.jpg,0,0.0,0.0,0,89,89,89,,,,,,,,,,,,,208.0001688000002,0.00016880000021046726,None,239.0929057000003,239.0929057000003,239.0929057000003,239.0929057000003,239.0929057000003,239.0929057000003,239.0929057000003,239.0929057000003,239.0929057000003,239.0929057000003,,002,P021,2025_May_08_1143,ConditionRich,2021.2.3,59.92071291266705,
208.75,212.0,41,0.0,Stimuli/Blank.png,0,0.0,0.0,0,90,90,90,,,,,,,,,,,,,208.76883999999973,0.018839999999727297,None,239.86006269999962,239.86006269999962,239.86006269999962,239.86006269999962,239.86006269999962,239.86006269999962,239.86006269999962,239.86006269999962,239.86006269999962,239.86006269999962,,002,P021,2025_May_08_1143,ConditionRich,2021.2.3,59.92071291266705,
212.0,212.75,24,0.75,Stimuli/P009/things_cigar_05n.jpg,0,0.0,0.0,0,91,91,91,,,,,,,,,,,,,212.01905989999977,0.019059899999774643,None,243.09626730000036,243.09626730000036,243.09626730000036,243.09626730000036,243.09626730000036,243.09626730000036,243.09626730000036,243.09626730000036,243.09626730000036,243.09626730000036,,002,P021,2025_May_08_1143,ConditionRich,2021.2.3,59.92071291266705,
212.75,216.0,41,0.0,Stimuli/Blank.png,0,0.0,0.0,0,92,92,92,,,,,,,,,,,,,212.75353790000008,0.0035379000000830274,None,243.84694789999958,243.84694789999958,243.84694789999958,243.84694789999958,243.84694789999958,243.84694789999958,243.84694789999958,243.84694789999958,243.84694789999958,243.84694789999958,,002,P021,2025_May_08_1143,ConditionRich,2021.2.3,59.92071291266705,
216.0,216.75,5,0.75,Stimuli/P009/sun_akqvdmuauoxeafrj.jpg,0,0.0,0.0,0,93,93,93,,,,,,,,,,,,,216.0232606999998,0.02326069999980973,None,247.11649299999954,247.11649299999954,247.11649299999954,247.11649299999954,247.11649299999954,247.11649299999954,247.11649299999954,247.11649299999954,247.11649299999954,247.11649299999954,,002,P021,2025_May_08_1143,ConditionRich,2021.2.3,59.92071291266705,
216.75,220.0,41,0.0,Stimuli/Blank.png,0,0.0,0.0,0,94,94,94,,,,,,,,,,,,,216.77319290000014,0.02319290000014007,None,247.85046669999974,247.85046669999974,247.85046669999974,247.85046669999974,247.85046669999974,247.85046669999974,247.85046669999974,247.85046669999974,247.85046669999974,247.85046669999974,,002,P021,2025_May_08_1143,ConditionRich,2021.2.3,59.92071291266705,
220.0,220.75,3,0.75,Stimuli/P009/sun_aewgwsmvsgzleqhw.jpg,0,0.0,0.0,0,95,95,95,,,,,,,,,,,,,220.01023449999957,0.01023449999956938,None,251.10334539999985,251.10334539999985,251.10334539999985,251.10334539999985,251.10334539999985,251.10334539999985,251.10334539999985,251.10334539999985,251.10334539999985,251.10334539999985,,002,P021,2025_May_08_1143,ConditionRich,2021.2.3,59.92071291266705,
220.75,224.0,41,0.0,Stimuli/Blank.png,0,0.0,0.0,0,96,96,96,,,,,,,,,,,,,220.7765687000001,0.026568700000098033,None,251.8540184000003,251.8540184000003,251.8540184000003,251.8540184000003,251.8540184000003,251.8540184000003,251.8540184000003,251.8540184000003,251.8540184000003,251.8540184000003,,002,P021,2025_May_08_1143,ConditionRich,2021.2.3,59.92071291266705,
224.0,224.75,20,0.75,Stimuli/P009/sun_ddsiwinthvyejghq.jpg,0,0.0,0.0,0,97,97,97,,,,,,,,,,,,,224.0140368000002,0.01403680000021268,None,255.10690330000034,255.10690330000034,255.10690330000034,255.10690330000034,255.10690330000034,255.10690330000034,255.10690330000034,255.10690330000034,255.10690330000034,255.10690330000034,,002,P021,2025_May_08_1143,ConditionRich,2021.2.3,59.92071291266705,
224.75,228.0,41,0.0,Stimuli/Blank.png,0,0.0,0.0,0,98,98,98,,,,,,,,,,,,,224.7809115,0.03091150000000198,None,255.85758439999972,255.85758439999972,255.85758439999972,255.85758439999972,255.85758439999972,255.85758439999972,255.85758439999972,255.85758439999972,255.85758439999972,255.85758439999972,,002,P021,2025_May_08_1143,ConditionRich,2021.2.3,59.92071291266705,
228.0,228.75,4,0.75,Stimuli/P009/sun_afkzdukwewwzqtmr.jpg,0,0.0,0.0,0,99,99,99,,,,,,,,,,,,,228.0026926999999,0.0026926999998977408,None,259.09376470000007,259.09376470000007,259.09376470000007,259.09376470000007,259.09376470000007,259.09376470000007,259.09376470000007,259.09376470000007,259.09376470000007,259.09376470000007,,002,P021,2025_May_08_1143,ConditionRich,2021.2.3,59.92071291266705,
228.75,232.0,41,0.0,Stimuli/Blank.png,0,0.0,0.0,0,100,100,100,,,,,,,,,,,,,228.7686523000002,0.018652300000212563,None,259.8444166999998,259.8444166999998,259.8444166999998,259.8444166999998,259.8444166999998,259.8444166999998,259.8444166999998,259.8444166999998,259.8444166999998,259.8444166999998,,002,P021,2025_May_08_1143,ConditionRich,2021.2.3,59.92071291266705,
232.0,232.75,6,0.75,Stimuli/P009/sun_amkrwcyvinmsylsz.jpg,0,0.0,0.0,0,101,101,101,,,,,,,,,,,,,232.00361220000013,0.0036122000001341803,None,263.0806028999996,263.0806028999996,263.0806028999996,263.0806028999996,263.0806028999996,263.0806028999996,263.0806028999996,263.0806028999996,263.0806028999996,263.0806028999996,,002,P021,2025_May_08_1143,ConditionRich,2021.2.3,59.92071291266705,
232.75,236.0,41,0.0,Stimuli/Blank.png,0,0.0,0.0,0,102,102,102,,,,,,,,,,,,,232.75398159999986,0.003981599999860919,None,263.83126710000033,263.83126710000033,263.83126710000033,263.83126710000033,263.83126710000033,263.83126710000033,263.83126710000033,263.83126710000033,263.83126710000033,263.83126710000033,,002,P021,2025_May_08_1143,ConditionRich,2021.2.3,59.92071291266705,
236.0,236.75,17,0.75,Stimuli/P009/sun_brkrfjpyfglmigkk.jpg,0,0.0,0.0,0,103,103,103,,,,,,,,,,,,,236.0074512000001,0.007451200000105018,None,267.10082559999955,267.10082559999955,267.10082559999955,267.10082559999955,267.10082559999955,267.10082559999955,267.10082559999955,267.10082559999955,267.10082559999955,267.10082559999955,,002,P021,2025_May_08_1143,ConditionRich,2021.2.3,59.92071291266705,
236.75,240.0,41,0.0,Stimuli/Blank.png,0,0.0,0.0,0,104,104,104,,,,,,,,,,,,,236.77406509999946,0.02406509999946138,None,267.85148839999965,267.85148839999965,267.85148839999965,267.85148839999965,267.85148839999965,267.85148839999965,267.85148839999965,267.85148839999965,267.85148839999965,267.85148839999965,,002,P021,2025_May_08_1143,ConditionRich,2021.2.3,59.92071291266705,
240.0,240.75,33,0.75,Stimuli/P009/things_lizard_05n.jpg,0,0.0,0.0,0,105,105,105,,,,,,,,,,,,,240.01320130000022,0.013201300000218907,None,271.10437589999947,271.10437589999947,271.10437589999947,271.10437589999947,271.10437589999947,271.10437589999947,271.10437589999947,271.10437589999947,271.10437589999947,271.10437589999947,,002,P021,2025_May_08_1143,ConditionRich,2021.2.3,59.92071291266705,
240.75,244.0,41,0.0,Stimuli/Blank.png,0,0.0,0.0,0,106,106,106,,,,,,,,,,,,,240.77770669999973,0.02770669999972597,None,271.85503270000027,271.85503270000027,271.85503270000027,271.85503270000027,271.85503270000027,271.85503270000027,271.85503270000027,271.85503270000027,271.85503270000027,271.85503270000027,,002,P021,2025_May_08_1143,ConditionRich,2021.2.3,59.92071291266705,
244.0,244.75,12,0.75,Stimuli/P009/sun_birmwgkdtrlevcaf.jpg,0,0.0,0.0,0,107,107,107,,,,,,,,,,,,,244.0143779,0.0143778999999995,None,275.1079110999999,275.1079110999999,275.1079110999999,275.1079110999999,275.1079110999999,275.1079110999999,275.1079110999999,275.1079110999999,275.1079110999999,275.1079110999999,,002,P021,2025_May_08_1143,ConditionRich,2021.2.3,59.92071291266705,
244.75,248.0,41,0.0,Stimuli/Blank.png,0,0.0,0.0,0,108,108,108,,,,,,,,,,,,,244.78170909999972,0.03170909999971627,None,275.8585396999997,275.8585396999997,275.8585396999997,275.8585396999997,275.8585396999997,275.8585396999997,275.8585396999997,275.8585396999997,275.8585396999997,275.8585396999997,,002,P021,2025_May_08_1143,ConditionRich,2021.2.3,59.92071291266705,
248.0,248.75,31,0.75,Stimuli/P009/things_girl_05s.jpg,0,0.0,0.0,0,109,109,109,,,,,,,,,,,,,248.00380369999948,0.003803699999480159,None,279.094779,279.094779,279.094779,279.094779,279.094779,279.094779,279.094779,279.094779,279.094779,279.094779,,002,P021,2025_May_08_1143,ConditionRich,2021.2.3,59.92071291266705,
248.75,252.0,41,0.0,Stimuli/Blank.png,1,0.25,1.0,0,110,110,110,,,,,,,,,,,,,248.7687331999996,0.01873319999958767,1,279.8454253,279.8454253,279.8454253,279.8454253,279.8454253,279.8454253,280.0789716999998,280.8296537999995,279.8454253,279.8454253,0.9619084000005387,002,P021,2025_May_08_1143,ConditionRich,2021.2.3,59.92071291266705,
252.0,252.75,25,0.75,Stimuli/P009/things_clothespin_05s.jpg,0,0.0,0.0,0,111,111,111,,,,,,,,,,,,,252.0052587,0.00525870000001305,None,283.0983220999997,283.0983220999997,283.0983220999997,283.0983220999997,283.0983220999997,283.0983220999997,283.0983220999997,283.0983220999997,283.0983220999997,283.0983220999997,,002,P021,2025_May_08_1143,ConditionRich,2021.2.3,59.92071291266705,
252.75,256.0,41,0.0,Stimuli/Blank.png,0,0.0,0.0,0,112,112,112,,,,,,,,,,,,,252.77220080000006,0.02220080000006419,None,283.8489762999998,283.8489762999998,283.8489762999998,283.8489762999998,283.8489762999998,283.8489762999998,283.8489762999998,283.8489762999998,283.8489762999998,283.8489762999998,,002,P021,2025_May_08_1143,ConditionRich,2021.2.3,59.92071291266705,
256.0,256.75,8,0.75,Stimuli/P009/sun_batcnoizlkeiqdtx.jpg,0,0.0,0.0,0,113,113,113,,,,,,,,,,,,,256.0088189999997,0.008818999999675725,None,287.10184879999997,287.10184879999997,287.10184879999997,287.10184879999997,287.10184879999997,287.10184879999997,287.10184879999997,287.10184879999997,287.10184879999997,287.10184879999997,,002,P021,2025_May_08_1143,ConditionRich,2021.2.3,59.92071291266705,
256.75,260.0,41,0.0,Stimuli/Blank.png,1,2.25,3.0,0,114,114,114,,,,,,,,,,,,,256.77586619999965,0.025866199999654782,1,287.8525176000003,287.8525176000003,287.8525176000003,287.8525176000003,287.8525176000003,287.8525176000003,290.08786189999955,290.83848130000024,287.8525176000003,287.8525176000003,2.7007402999997794,002,P021,2025_May_08_1143,ConditionRich,2021.2.3,59.92071291266705,
260.0,260.75,34,0.75,Stimuli/P009/things_man_05s.jpg,0,0.0,0.0,0,115,115,115,,,,,,,,,,,,,260.01224619999994,0.012246199999935925,None,291.10538540000016,291.10538540000016,291.10538540000016,291.10538540000016,291.10538540000016,291.10538540000016,291.10538540000016,291.10538540000016,291.10538540000016,291.10538540000016,,002,P021,2025_May_08_1143,ConditionRich,2021.2.3,59.92071291266705,
260.75,264.0,41,0.0,Stimuli/Blank.png,0,0.0,0.0,0,116,116,116,,,,,,,,,,,,,260.7795636000001,0.029563600000074075,None,291.85606089999965,291.85606089999965,291.85606089999965,291.85606089999965,291.85606089999965,291.85606089999965,291.85606089999965,291.85606089999965,291.85606089999965,291.85606089999965,,002,P021,2025_May_08_1143,ConditionRich,2021.2.3,59.92071291266705,
264.0,264.75,36,0.75,Stimuli/P009/things_pelican_05s.jpg,0,0.0,0.0,0,117,117,117,,,,,,,,,,,,,263.9981352999994,-0.0018647000006239978,None,295.0755515000001,295.0755515000001,295.0755515000001,295.0755515000001,295.0755515000001,295.0755515000001,295.0755515000001,295.0755515000001,295.0755515000001,295.0755515000001,,002,P021,2025_May_08_1143,ConditionRich,2021.2.3,59.92071291266705,
264.75,268.0,41,0.0,Stimuli/Blank.png,1,1.25,2.0,0,118,118,118,,,,,,,,,,,,,264.76804099999936,0.018040999999357155,1,295.85959619999994,295.85959619999994,295.85959619999994,295.85959619999994,295.85959619999994,295.85959619999994,297.0940092999999,297.8446716999997,295.85959619999994,295.85959619999994,1.64764120000018,002,P021,2025_May_08_1143,ConditionRich,2021.2.3,59.92071291266705,
268.0,268.75,26,0.75,Stimuli/P009/things_cookie_sheet_05s.jpg,0,0.0,0.0,0,119,119,119,,,,,,,,,,,,,268.0187412999994,0.018741299999419425,None,299.09577460000037,299.09577460000037,299.09577460000037,299.09577460000037,299.09577460000037,299.09577460000037,299.09577460000037,299.09577460000037,299.09577460000037,299.09577460000037,,002,P021,2025_May_08_1143,ConditionRich,2021.2.3,59.92071291266705,
268.75,272.0,41,0.0,Stimuli/Blank.png,1,0.25,1.0,0,120,120,120,,,,,,,,,,,,,268.7531478000001,0.0031478000000788597,1,299.8297660999997,299.8297660999997,299.8297660999997,299.8297660999997,299.8297660999997,299.8297660999997,300.0632687999996,300.8139616999997,299.8297660999997,299.8297660999997,0.6775305999999546,002,P021,2025_May_08_1143,ConditionRich,2021.2.3,59.92071291266705,
272.0,272.75,11,0.75,Stimuli/P009/sun_bfyvfqiimvdaxlqn.jpg,0,0.0,0.0,0,121,121,121,,,,,,,,,,,,,272.006085,0.006084999999984575,None,303.0993305000002,303.0993305000002,303.0993305000002,303.0993305000002,303.0993305000002,303.0993305000002,303.0993305000002,303.0993305000002,303.0993305000002,303.0993305000002,,002,P021,2025_May_08_1143,ConditionRich,2021.2.3,59.92071291266705,
272.75,276.0,41,0.0,Stimuli/Blank.png,1,2.25,3.0,0,122,122,122,,,,,,,,,,,,,272.7732249999999,0.023224999999911233,1,303.84999210000024,303.84999210000024,303.84999210000024,303.84999210000024,303.84999210000024,303.84999210000024,306.0853062999995,306.8359958000001,303.84999210000024,303.84999210000024,2.801467600000251,002,P021,2025_May_08_1143,ConditionRich,2021.2.3,59.92071291266705,
276.0,292.0,0,0.0,Stimuli/Blank.png,1,7.0,7.75,0,123,123,123,,,,,,,,,,,,,276.00897429999986,0.008974299999863433,1,307.0861839999998,307.0861839999998,307.0861839999998,307.0861839999998,307.0861839999998,307.0861839999998,314.07569429999967,314.8264043999998,307.0861839999998,307.0861839999998,7.4601316999996925,002,P021,2025_May_08_1143,ConditionRich,2021.2.3,59.92071291266705,
292.0,292.75,23,0.75,Stimuli/P009/things_charger_05s.jpg,0,0.0,0.0,0,124,124,124,,,,,,,,,,,,,292.0084718999997,0.00847189999967668,None,323.10033420000036,323.10033420000036,323.10033420000036,323.10033420000036,323.10033420000036,323.10033420000036,323.10033420000036,323.10033420000036,323.10033420000036,323.10033420000036,,002,P021,2025_May_08_1143,ConditionRich,2021.2.3,59.92071291266705,
292.75,296.0,41,0.0,Stimuli/Blank.png,0,0.0,0.0,0,125,125,125,,,,,,,,,,,,,292.7735096999995,0.023509699999522127,None,323.8510084999998,323.8510084999998,323.8510084999998,323.8510084999998,323.8510084999998,323.8510084999998,323.8510084999998,323.8510084999998,323.8510084999998,323.8510084999998,,002,P021,2025_May_08_1143,ConditionRich,2021.2.3,59.92071291266705,
296.0,296.75,22,0.75,Stimuli/P009/things_butterfly_05s.jpg,0,0.0,0.0,0,126,126,126,,,,,,,,,,,,,296.0098264999997,0.009826499999689986,None,327.10390540000026,327.10390540000026,327.10390540000026,327.10390540000026,327.10390540000026,327.10390540000026,327.10390540000026,327.10390540000026,327.10390540000026,327.10390540000026,,002,P021,2025_May_08_1143,ConditionRich,2021.2.3,59.92071291266705,
296.75,300.0,41,0.0,Stimuli/Blank.png,0,0.0,0.0,0,127,127,127,,,,,,,,,,,,,296.7772385999997,0.02723859999969136,None,327.8545402,327.8545402,327.8545402,327.8545402,327.8545402,327.8545402,327.8545402,327.8545402,327.8545402,327.8545402,,002,P021,2025_May_08_1143,ConditionRich,2021.2.3,59.92071291266705,
300.0,300.75,15,0.75,Stimuli/P009/sun_boryivbddrnarrbo.jpg,0,0.0,0.0,0,128,128,128,,,,,,,,,,,,,300.0134754999999,0.013475499999913154,None,331.0907252999996,331.0907252999996,331.0907252999996,331.0907252999996,331.0907252999996,331.0907252999996,331.0907252999996,331.0907252999996,331.0907252999996,331.0907252999996,,002,P021,2025_May_08_1143,ConditionRich,2021.2.3,59.92071291266705,
300.75,304.0,41,0.0,Stimuli/Blank.png,1,2.25,3.0,0,129,129,129,,,,,,,,,,,,,300.76417649999985,0.014176499999848602,1,331.84139010000035,331.84139010000035,331.84139010000035,331.84139010000035,331.84139010000035,331.84139010000035,334.0767429999996,334.82740639999975,331.84139010000035,331.84139010000035,2.6499776999999085,002,P021,2025_May_08_1143,ConditionRich,2021.2.3,59.92071291266705,
304.0,304.75,30,0.75,Stimuli/P009/things_fire_05s.jpg,0,0.0,0.0,0,130,130,130,,,,,,,,,,,,,304.0032563999994,0.003256399999372661,None,335.09423830000014,335.09423830000014,335.09423830000014,335.09423830000014,335.09423830000014,335.09423830000014,335.09423830000014,335.09423830000014,335.09423830000014,335.09423830000014,,002,P021,2025_May_08_1143,ConditionRich,2021.2.3,59.92071291266705,
304.75,308.0,41,0.0,Stimuli/Blank.png,0,0.0,0.0,0,131,131,131,,,,,,,,,,,,,304.76834489999965,0.01834489999964717,None,335.8449281000003,335.8449281000003,335.8449281000003,335.8449281000003,335.8449281000003,335.8449281000003,335.8449281000003,335.8449281000003,335.8449281000003,335.8449281000003,,002,P021,2025_May_08_1143,ConditionRich,2021.2.3,59.92071291266705,
308.0,308.75,38,0.75,Stimuli/P009/things_roadsweeper_05s.jpg,0,0.0,0.0,0,132,132,132,,,,,,,,,,,,,308.00375389999954,0.00375389999953768,None,339.0811345000002,339.0811345000002,339.0811345000002,339.0811345000002,339.0811345000002,339.0811345000002,339.0811345000002,339.0811345000002,339.0811345000002,339.0811345000002,,002,P021,2025_May_08_1143,ConditionRich,2021.2.3,59.92071291266705,
308.75,312.0,41,0.0,Stimuli/Blank.png,1,1.25,2.0,0,133,133,133,,,,,,,,,,,,,308.7550081999998,0.005008199999792851,1,339.8317718999997,339.8317718999997,339.8317718999997,339.8317718999997,339.8317718999997,339.8317718999997,341.06627169999956,341.8169343999998,339.8317718999997,339.8317718999997,1.755520400000023,002,P021,2025_May_08_1143,ConditionRich,2021.2.3,59.92071291266705,
312.0,312.75,19,0.75,Stimuli/P009/sun_bwvfnogmotsvhofs.jpg,0,0.0,0.0,0,134,134,134,,,,,,,,,,,,,312.0073093000001,0.007309300000088115,None,343.0846627000001,343.0846627000001,343.0846627000001,343.0846627000001,343.0846627000001,343.0846627000001,343.0846627000001,343.0846627000001,343.0846627000001,343.0846627000001,,002,P021,2025_May_08_1143,ConditionRich,2021.2.3,59.92071291266705,
312.75,316.0,41,0.0,Stimuli/Blank.png,0,0.0,0.0,0,135,135,135,,,,,,,,,,,,,312.75800549999985,0.008005499999853782,None,343.83533499999976,343.83533499999976,343.83533499999976,343.83533499999976,343.83533499999976,343.83533499999976,343.83533499999976,343.83533499999976,343.83533499999976,343.83533499999976,,002,P021,2025_May_08_1143,ConditionRich,2021.2.3,59.92071291266705,
316.0,316.75,2,0.75,Stimuli/P009/sun_acvloibbxiqpiwnv.jpg,0,0.0,0.0,0,136,136,136,,,,,,,,,,,,,316.01218340000014,0.012183400000139954,None,347.1049250999995,347.1049250999995,347.1049250999995,347.1049250999995,347.1049250999995,347.1049250999995,347.1049250999995,347.1049250999995,347.1049250999995,347.1049250999995,,002,P021,2025_May_08_1143,ConditionRich,2021.2.3,59.92071291266705,
316.75,320.0,41,0.0,Stimuli/Blank.png,0,0.0,0.0,0,137,137,137,,,,,,,,,,,,,316.7791551,0.029155100000025413,None,347.8556714999995,347.8556714999995,347.8556714999995,347.8556714999995,347.8556714999995,347.8556714999995,347.8556714999995,347.8556714999995,347.8556714999995,347.8556714999995,,002,P021,2025_May_08_1143,ConditionRich,2021.2.3,59.92071291266705,
320.0,320.75,39,0.75,Stimuli/P009/things_tiara_05s.jpg,0,0.0,0.0,0,138,138,138,,,,,,,,,,,,,320.01491499999975,0.014914999999746215,None,351.1084407999997,351.1084407999997,351.1084407999997,351.1084407999997,351.1084407999997,351.1084407999997,351.1084407999997,351.1084407999997,351.1084407999997,351.1084407999997,,002,P021,2025_May_08_1143,ConditionRich,2021.2.3,59.92071291266705,
320.75,324.0,41,0.0,Stimuli/Blank.png,0,0.0,0.0,0,139,139,139,,,,,,,,,,,,,320.7819899999995,0.03198999999949592,None,351.85906090000026,351.85906090000026,351.85906090000026,351.85906090000026,351.85906090000026,351.85906090000026,351.85906090000026,351.85906090000026,351.85906090000026,351.85906090000026,,002,P021,2025_May_08_1143,ConditionRich,2021.2.3,59.92071291266705,
324.0,324.75,28,0.75,Stimuli/P009/things_face_05s.jpg,0,0.0,0.0,0,140,140,140,,,,,,,,,,,,,324.0032618999994,0.0032618999994156184,None,355.0952921999997,355.0952921999997,355.0952921999997,355.0952921999997,355.0952921999997,355.0952921999997,355.0952921999997,355.0952921999997,355.0952921999997,355.0952921999997,,002,P021,2025_May_08_1143,ConditionRich,2021.2.3,59.92071291266705,
324.75,328.0,41,0.0,Stimuli/Blank.png,0,0.0,0.0,0,141,141,141,,,,,,,,,,,,,324.7695582999995,0.01955829999951675,None,355.8459382000001,355.8459382000001,355.8459382000001,355.8459382000001,355.8459382000001,355.8459382000001,355.8459382000001,355.8459382000001,355.8459382000001,355.8459382000001,,002,P021,2025_May_08_1143,ConditionRich,2021.2.3,59.92071291266705,
328.0,328.75,18,0.75,Stimuli/P009/sun_bwjdahsxcqepqqbm.jpg,0,0.0,0.0,0,142,142,142,,,,,,,,,,,,,328.00772510000024,0.007725100000243401,None,359.0988322000003,359.0988322000003,359.0988322000003,359.0988322000003,359.0988322000003,359.0988322000003,359.0988322000003,359.0988322000003,359.0988322000003,359.0988322000003,,002,P021,2025_May_08_1143,ConditionRich,2021.2.3,59.92071291266705,
328.75,332.0,41,0.0,Stimuli/Blank.png,0,0.0,0.0,0,143,143,143,,,,,,,,,,,,,328.7734725999999,0.023472599999877275,None,359.84949589999997,359.84949589999997,359.84949589999997,359.84949589999997,359.84949589999997,359.84949589999997,359.84949589999997,359.84949589999997,359.84949589999997,359.84949589999997,,002,P021,2025_May_08_1143,ConditionRich,2021.2.3,59.92071291266705,
332.0,332.75,1,0.75,Stimuli/P009/sun_abqdlumenyzawlme.jpg,0,0.0,0.0,0,144,144,144,,,,,,,,,,,,,332.0084393999996,0.008439399999588204,None,363.0856807,363.0856807,363.0856807,363.0856807,363.0856807,363.0856807,363.0856807,363.0856807,363.0856807,363.0856807,,002,P021,2025_May_08_1143,ConditionRich,2021.2.3,59.92071291266705,
332.75,336.0,41,0.0,Stimuli/Blank.png,0,0.0,0.0,0,145,145,145,,,,,,,,,,,,,332.7591720999999,0.009172099999886996,None,363.83634770000026,363.83634770000026,363.83634770000026,363.83634770000026,363.83634770000026,363.83634770000026,363.83634770000026,363.83634770000026,363.83634770000026,363.83634770000026,,002,P021,2025_May_08_1143,ConditionRich,2021.2.3,59.92071291266705,
336.0,336.75,14,0.75,Stimuli/P009/sun_blaqxdebghixzyyw.jpg,0,0.0,0.0,0,146,146,146,,,,,,,,,,,,,336.01262009999937,0.012620099999367085,None,367.0892157999997,367.0892157999997,367.0892157999997,367.0892157999997,367.0892157999997,367.0892157999997,367.0892157999997,367.0892157999997,367.0892157999997,367.0892157999997,,002,P021,2025_May_08_1143,ConditionRich,2021.2.3,59.92071291266705,
336.75,340.0,41,0.0,Stimuli/Blank.png,0,0.0,0.0,0,147,147,147,,,,,,,,,,,,,336.7642771999999,0.01427719999992405,None,367.83990470000026,367.83990470000026,367.83990470000026,367.83990470000026,367.83990470000026,367.83990470000026,367.83990470000026,367.83990470000026,367.83990470000026,367.83990470000026,,002,P021,2025_May_08_1143,ConditionRich,2021.2.3,59.92071291266705,
340.0,340.75,10,0.75,Stimuli/P009/sun_bdkttewvyfdarikm.jpg,0,0.0,0.0,0,148,148,148,,,,,,,,,,,,,339.9986450999995,-0.0013549000004786649,None,371.0760855999997,371.0760855999997,371.0760855999997,371.0760855999997,371.0760855999997,371.0760855999997,371.0760855999997,371.0760855999997,371.0760855999997,371.0760855999997,,002,P021,2025_May_08_1143,ConditionRich,2021.2.3,59.92071291266705,
340.75,344.0,41,0.0,Stimuli/Blank.png,0,0.0,0.0,0,149,149,149,,,,,,,,,,,,,340.7492793000001,-0.0007206999998743413,None,371.8267364000003,371.8267364000003,371.8267364000003,371.8267364000003,371.8267364000003,371.8267364000003,371.8267364000003,371.8267364000003,371.8267364000003,371.8267364000003,,002,P021,2025_May_08_1143,ConditionRich,2021.2.3,59.92071291266705,
344.0,344.75,29,0.75,Stimuli/P009/things_fingerprint_05s.jpg,0,0.0,0.0,0,150,150,150,,,,,,,,,,,,,344.0029107999999,0.0029107999998814194,None,375.0963005000003,375.0963005000003,375.0963005000003,375.0963005000003,375.0963005000003,375.0963005000003,375.0963005000003,375.0963005000003,375.0963005000003,375.0963005000003,,002,P021,2025_May_08_1143,ConditionRich,2021.2.3,59.92071291266705,
344.75,348.0,41,0.0,Stimuli/Blank.png,0,0.0,0.0,0,151,151,151,,,,,,,,,,,,,344.76952679999977,0.01952679999976681,None,375.8469820999999,375.8469820999999,375.8469820999999,375.8469820999999,375.8469820999999,375.8469820999999,375.8469820999999,375.8469820999999,375.8469820999999,375.8469820999999,,002,P021,2025_May_08_1143,ConditionRich,2021.2.3,59.92071291266705,
348.0,348.75,16,0.75,Stimuli/P009/sun_bqpyqljaflidcauh.jpg,0,0.0,0.0,0,152,152,152,,,,,,,,,,,,,348.0079820000001,0.007982000000083644,None,379.0998405,379.0998405,379.0998405,379.0998405,379.0998405,379.0998405,379.0998405,379.0998405,379.0998405,379.0998405,,002,P021,2025_May_08_1143,ConditionRich,2021.2.3,59.92071291266705,
348.75,352.0,41,0.0,Stimuli/Blank.png,0,0.0,0.0,0,153,153,153,,,,,,,,,,,,,348.77377590000015,0.023775900000146066,None,379.8505028999998,379.8505028999998,379.8505028999998,379.8505028999998,379.8505028999998,379.8505028999998,379.8505028999998,379.8505028999998,379.8505028999998,379.8505028999998,,002,P021,2025_May_08_1143,ConditionRich,2021.2.3,59.92071291266705,
352.0,352.75,9,0.75,Stimuli/P009/sun_bdjkvwqqqycuixtc.jpg,0,0.0,0.0,0,154,154,154,,,,,,,,,,,,,352.0100567999998,0.010056799999802024,None,383.1034287000002,383.1034287000002,383.1034287000002,383.1034287000002,383.1034287000002,383.1034287000002,383.1034287000002,383.1034287000002,383.1034287000002,383.1034287000002,,002,P021,2025_May_08_1143,ConditionRich,2021.2.3,59.92071291266705,
352.75,356.0,41,0.0,Stimuli/Blank.png,0,0.0,0.0,0,155,155,155,,,,,,,,,,,,,352.77801050000016,0.02801050000016403,None,383.8540098000003,383.8540098000003,383.8540098000003,383.8540098000003,383.8540098000003,383.8540098000003,383.8540098000003,383.8540098000003,383.8540098000003,383.8540098000003,,002,P021,2025_May_08_1143,ConditionRich,2021.2.3,59.92071291266705,
356.0,356.75,37,0.75,Stimuli/P009/things_pug_05s.jpg,0,0.0,0.0,0,156,156,156,,,,,,,,,,,,,356.0137391999997,0.013739199999690754,None,387.1069152,387.1069152,387.1069152,387.1069152,387.1069152,387.1069152,387.1069152,387.1069152,387.1069152,387.1069152,,002,P021,2025_May_08_1143,ConditionRich,2021.2.3,59.92071291266705,
356.75,360.0,41,0.0,Stimuli/Blank.png,0,0.0,0.0,0,157,157,157,,,,,,,,,,,,,356.7831422999998,0.033142299999781244,None,387.87426380000034,387.87426380000034,387.87426380000034,387.87426380000034,387.87426380000034,387.87426380000034,387.87426380000034,387.87426380000034,387.87426380000034,387.87426380000034,,002,P021,2025_May_08_1143,ConditionRich,2021.2.3,59.92071291266705,
360.0,360.75,13,0.75,Stimuli/P009/sun_bjimvgwadfodioes.jpg,0,0.0,0.0,0,158,158,158,,,,,,,,,,,,,360.0174090999999,0.01740909999989526,None,391.11049339999954,391.11049339999954,391.11049339999954,391.11049339999954,391.11049339999954,391.11049339999954,391.11049339999954,391.11049339999954,391.11049339999954,391.11049339999954,,002,P021,2025_May_08_1143,ConditionRich,2021.2.3,59.92071291266705,
360.75,364.0,41,0.0,Stimuli/Blank.png,1,2.25,3.0,0,159,159,159,,,,,,,,,,,,,360.7671650000002,0.0171650000002046,1,391.84443439999995,391.84443439999995,391.84443439999995,391.84443439999995,391.84443439999995,391.84443439999995,394.0797599999996,394.8304484,391.84443439999995,391.84443439999995,2.9698489000002155,002,P021,2025_May_08_1143,ConditionRich,2021.2.3,59.92071291266705,
364.0,364.75,21,0.75,Stimuli/P009/things_boy_05s.jpg,0,0.0,0.0,0,160,160,160,,,,,,,,,,,,,364.0041677999998,0.004167799999777344,None,395.08062229999996,395.08062229999996,395.08062229999996,395.08062229999996,395.08062229999996,395.08062229999996,395.08062229999996,395.08062229999996,395.08062229999996,395.08062229999996,,002,P021,2025_May_08_1143,ConditionRich,2021.2.3,59.92071291266705,
364.75,368.0,41,0.0,Stimuli/Blank.png,0,0.0,0.0,0,161,161,161,,,,,,,,,,,,,364.7545819999996,0.004581999999572872,None,395.8312974999999,395.8312974999999,395.8312974999999,395.8312974999999,395.8312974999999,395.8312974999999,395.8312974999999,395.8312974999999,395.8312974999999,395.8312974999999,,002,P021,2025_May_08_1143,ConditionRich,2021.2.3,59.92071291266705,
368.0,368.75,32,0.75,Stimuli/P009/things_hawk_05s.jpg,0,0.0,0.0,0,162,162,162,,,,,,,,,,,,,368.0075673000001,0.007567300000118848,None,399.0841700000001,399.0841700000001,399.0841700000001,399.0841700000001,399.0841700000001,399.0841700000001,399.0841700000001,399.0841700000001,399.0841700000001,399.0841700000001,,002,P021,2025_May_08_1143,ConditionRich,2021.2.3,59.92071291266705,
368.75,372.0,41,0.0,Stimuli/Blank.png,1,2.25,3.0,0,163,163,163,,,,,,,,,,,,,368.7576220000001,0.007622000000083062,1,399.8348371000002,399.8348371000002,399.8348371000002,399.8348371000002,399.8348371000002,399.8348371000002,402.07014230000004,402.8208016999997,399.8348371000002,399.8348371000002,2.670374499999525,002,P021,2025_May_08_1143,ConditionRich,2021.2.3,59.92071291266705,
372.0,388.0,0,0.0,Stimuli/Blank.png,1,10.0,10.75,0,164,164,164,,,,,,,,,,,,,372.01278039999943,0.012780399999428482,1,403.10440070000004,403.10440070000004,403.10440070000004,403.10440070000004,403.10440070000004,403.10440070000004,413.07987179999964,413.83053839999957,403.10440070000004,403.10440070000004,10.57483240000056,002,P021,2025_May_08_1143,ConditionRich,2021.2.3,59.92071291266705,
