eventStartTime,eventEndTime,eventCond,imSize,imFile,responseEvent,fixRespStart,fixRespEnd,Events.thisRepN,Events.thisTrialN,Events.thisN,Events.thisIndex,Instructions.started,Instructions.stopped,participantReadyResponse.keys,participantReadyResponse.rt,participantReadyResponse.started,participantReadyResponse.stopped,startWaitforTrigger,triggerResponse.keys,triggerResponse.rt,triggerResponse.started,triggerResponse.stopped,globalTimer,actualStartTime,startTimingDiff,participantResponse.keys,participantResponse.started,participantResponse.stopped,image.started,image.stopped,fixationOutside.started,fixationOutside.stopped,fixationResponse.started,fixationResponse.stopped,fixationInside.started,fixationInside.stopped,participantResponse.rt,session,participant,date,expName,psychopyVersion,frameRate,
,,,,,,,,,,,,11.044766200000595,None,2,6.267721599999277,11.044766200000595,None,,,,,,,,,,,,,,,,,,,,,009,P021,2025_May_08_1246,ConditionRich,2021.2.3,59.93457541752222,
,,,,,,,,,,,,,,,,,,17.320341500000723,5,13.724173399999927,17.33456750000005,None,,,,,,,,,,,,,,,,009,P021,2025_May_08_1246,ConditionRich,2021.2.3,59.93457541752222,
0.0,4.0,0,0.0,Stimuli/Blank.png,0,0,0.0,0,0,0,0,,,,,,,,,,,,31.066996800000197,0.03580610000062734,0.03580610000062734,None,31.11334270000043,None,31.11334270000043,None,31.11334270000043,None,31.11334270000043,31.11334270000043,31.11334270000043,None,,009,P021,2025_May_08_1246,ConditionRich,2021.2.3,59.93457541752222,
4.0,4.75,4,0.75,Stimuli/P009/sun_afkzdukwewwzqtmr.jpg,0,0,0.0,0,1,1,1,,,,,,,,,,,,,4.00364350000018,0.003643500000180211,None,35.08390540000073,35.08390540000073,35.08390540000073,35.08390540000073,35.08390540000073,35.08390540000073,35.08390540000073,35.08390540000073,35.08390540000073,35.08390540000073,,009,P021,2025_May_08_1246,ConditionRich,2021.2.3,59.93457541752222,
4.75,5.0,41,0.0,Stimuli/Blank.png,0,0,0.0,0,2,2,2,,,,,,,,,,,,,4.755991400001221,0.005991400001221336,None,35.85132470000099,35.85132470000099,35.85132470000099,35.85132470000099,35.85132470000099,35.85132470000099,35.85132470000099,35.85132470000099,35.85132470000099,35.85132470000099,,009,P021,2025_May_08_1246,ConditionRich,2021.2.3,59.93457541752222,
5.0,5.75,4,0.75,Stimuli/P009/sun_afkzdukwewwzqtmr.jpg,0,0,0.0,0,3,3,3,,,,,,,,,,,,,5.02089850000084,0.020898500000839704,None,36.1179503000003,36.1179503000003,36.1179503000003,36.1179503000003,36.1179503000003,36.1179503000003,36.1179503000003,36.1179503000003,36.1179503000003,36.1179503000003,,009,P021,2025_May_08_1246,ConditionRich,2021.2.3,59.93457541752222,
5.75,6.0,41,0.0,Stimuli/Blank.png,0,0,0.0,0,4,4,4,,,,,,,,,,,,,5.7704090000006545,0.020409000000654487,None,36.85192509999979,36.85192509999979,36.85192509999979,36.85192509999979,36.85192509999979,36.85192509999979,36.85192509999979,36.85192509999979,36.85192509999979,36.85192509999979,,009,P021,2025_May_08_1246,ConditionRich,2021.2.3,59.93457541752222,
6.0,6.75,4,0.75,Stimuli/P009/sun_afkzdukwewwzqtmr.jpg,0,0,0.0,0,5,5,5,,,,,,,,,,,,,6.004197399999612,0.004197399999611662,None,37.08547350000117,37.08547350000117,37.08547350000117,37.08547350000117,37.08547350000117,37.08547350000117,37.08547350000117,37.08547350000117,37.08547350000117,37.08547350000117,,009,P021,2025_May_08_1246,ConditionRich,2021.2.3,59.93457541752222,
6.75,7.0,41,0.0,Stimuli/Blank.png,0,0,0.0,0,6,6,6,,,,,,,,,,,,,6.755430400000478,0.005430400000477675,None,37.83614959999977,37.83614959999977,37.83614959999977,37.83614959999977,37.83614959999977,37.83614959999977,37.83614959999977,37.83614959999977,37.83614959999977,37.83614959999977,,009,P021,2025_May_08_1246,ConditionRich,2021.2.3,59.93457541752222,
7.0,7.75,4,0.75,Stimuli/P009/sun_afkzdukwewwzqtmr.jpg,0,0,0.0,0,7,7,7,,,,,,,,,,,,,7.005995800000164,0.005995800000164309,None,38.10315900000023,38.10315900000023,38.10315900000023,38.10315900000023,38.10315900000023,38.10315900000023,38.10315900000023,38.10315900000023,38.10315900000023,38.10315900000023,,009,P021,2025_May_08_1246,ConditionRich,2021.2.3,59.93457541752222,
7.75,8.0,41,0.0,Stimuli/Blank.png,0,0,0.0,0,8,8,8,,,,,,,,,,,,,7.772527500001161,0.02252750000116066,None,38.85379079999984,38.85379079999984,38.85379079999984,38.85379079999984,38.85379079999984,38.85379079999984,38.85379079999984,38.85379079999984,38.85379079999984,38.85379079999984,,009,P021,2025_May_08_1246,ConditionRich,2021.2.3,59.93457541752222,
8.0,8.75,17,0.75,Stimuli/P009/sun_brkrfjpyfglmigkk.jpg,0,0,0.0,0,9,9,9,,,,,,,,,,,,,8.006342500000756,0.0063425000007555354,None,39.0873102000005,39.0873102000005,39.0873102000005,39.0873102000005,39.0873102000005,39.0873102000005,39.0873102000005,39.0873102000005,39.0873102000005,39.0873102000005,,009,P021,2025_May_08_1246,ConditionRich,2021.2.3,59.93457541752222,
8.75,9.0,41,0.0,Stimuli/Blank.png,0,0,0.0,0,10,10,10,,,,,,,,,,,,,8.756365900000674,0.006365900000673719,None,39.837973100000454,39.837973100000454,39.837973100000454,39.837973100000454,39.837973100000454,39.837973100000454,39.837973100000454,39.837973100000454,39.837973100000454,39.837973100000454,,009,P021,2025_May_08_1246,ConditionRich,2021.2.3,59.93457541752222,
9.0,9.75,17,0.75,Stimuli/P009/sun_brkrfjpyfglmigkk.jpg,0,0,0.0,0,11,11,11,,,,,,,,,,,,,9.008775300000707,0.00877530000070692,None,40.104920600000696,40.104920600000696,40.104920600000696,40.104920600000696,40.104920600000696,40.104920600000696,40.104920600000696,40.104920600000696,40.104920600000696,40.104920600000696,,009,P021,2025_May_08_1246,ConditionRich,2021.2.3,59.93457541752222,
9.75,10.0,41,0.0,Stimuli/Blank.png,0,0,0.0,0,12,12,12,,,,,,,,,,,,,9.775473100000454,0.025473100000453996,None,40.85556170000018,40.85556170000018,40.85556170000018,40.85556170000018,40.85556170000018,40.85556170000018,40.85556170000018,40.85556170000018,40.85556170000018,40.85556170000018,,009,P021,2025_May_08_1246,ConditionRich,2021.2.3,59.93457541752222,
10.0,10.75,17,0.75,Stimuli/P009/sun_brkrfjpyfglmigkk.jpg,0,0,0.0,0,13,13,13,,,,,,,,,,,,,10.008521300000211,0.00852130000021134,None,41.1057679000005,41.1057679000005,41.1057679000005,41.1057679000005,41.1057679000005,41.1057679000005,41.1057679000005,41.1057679000005,41.1057679000005,41.1057679000005,,009,P021,2025_May_08_1246,ConditionRich,2021.2.3,59.93457541752222,
10.75,11.0,41,0.0,Stimuli/Blank.png,0,0,0.0,0,14,14,14,,,,,,,,,,,,,10.775563999999576,0.02556399999957648,None,41.85640080000121,41.85640080000121,41.85640080000121,41.85640080000121,41.85640080000121,41.85640080000121,41.85640080000121,41.85640080000121,41.85640080000121,41.85640080000121,,009,P021,2025_May_08_1246,ConditionRich,2021.2.3,59.93457541752222,
11.0,11.75,17,0.75,Stimuli/P009/sun_brkrfjpyfglmigkk.jpg,0,0,0.0,0,15,15,15,,,,,,,,,,,,,11.009192999999868,0.009192999999868334,None,42.10665710000103,42.10665710000103,42.10665710000103,42.10665710000103,42.10665710000103,42.10665710000103,42.10665710000103,42.10665710000103,42.10665710000103,42.10665710000103,,009,P021,2025_May_08_1246,ConditionRich,2021.2.3,59.93457541752222,
11.75,12.0,41,0.0,Stimuli/Blank.png,0,0,0.0,0,16,16,16,,,,,,,,,,,,,11.776929999999993,0.026929999999993015,None,42.874026600000434,42.874026600000434,42.874026600000434,42.874026600000434,42.874026600000434,42.874026600000434,42.874026600000434,42.874026600000434,42.874026600000434,42.874026600000434,,009,P021,2025_May_08_1246,ConditionRich,2021.2.3,59.93457541752222,
12.0,12.75,36,0.75,Stimuli/P009/things_pelican_05s.jpg,0,0,0.0,0,17,17,17,,,,,,,,,,,,,12.027436600001238,0.02743660000123782,None,43.12421739999991,43.12421739999991,43.12421739999991,43.12421739999991,43.12421739999991,43.12421739999991,43.12421739999991,43.12421739999991,43.12421739999991,43.12421739999991,,009,P021,2025_May_08_1246,ConditionRich,2021.2.3,59.93457541752222,
12.75,13.0,41,0.0,Stimuli/Blank.png,0,0,0.0,0,18,18,18,,,,,,,,,,,,,12.777531300000192,0.02753130000019155,None,43.85819380000066,43.85819380000066,43.85819380000066,43.85819380000066,43.85819380000066,43.85819380000066,43.85819380000066,43.85819380000066,43.85819380000066,43.85819380000066,,009,P021,2025_May_08_1246,ConditionRich,2021.2.3,59.93457541752222,
13.0,13.75,36,0.75,Stimuli/P009/things_pelican_05s.jpg,0,0,0.0,0,19,19,19,,,,,,,,,,,,,13.010402500000055,0.010402500000054715,None,44.091763000000356,44.091763000000356,44.091763000000356,44.091763000000356,44.091763000000356,44.091763000000356,44.091763000000356,44.091763000000356,44.091763000000356,44.091763000000356,,009,P021,2025_May_08_1246,ConditionRich,2021.2.3,59.93457541752222,
13.75,14.0,41,0.0,Stimuli/Blank.png,0,0,0.0,0,20,20,20,,,,,,,,,,,,,13.760935899999822,0.01093589999982214,None,44.84241170000132,44.84241170000132,44.84241170000132,44.84241170000132,44.84241170000132,44.84241170000132,44.84241170000132,44.84241170000132,44.84241170000132,44.84241170000132,,009,P021,2025_May_08_1246,ConditionRich,2021.2.3,59.93457541752222,
14.0,14.75,36,0.75,Stimuli/P009/things_pelican_05s.jpg,0,0,0.0,0,21,21,21,,,,,,,,,,,,,14.012321300000622,0.012321300000621704,None,45.092792700001155,45.092792700001155,45.092792700001155,45.092792700001155,45.092792700001155,45.092792700001155,45.092792700001155,45.092792700001155,45.092792700001155,45.092792700001155,,009,P021,2025_May_08_1246,ConditionRich,2021.2.3,59.93457541752222,
14.75,15.0,41,0.0,Stimuli/Blank.png,0,0,0.0,0,22,22,22,,,,,,,,,,,,,14.761795300000813,0.011795300000812858,None,45.84328430000096,45.84328430000096,45.84328430000096,45.84328430000096,45.84328430000096,45.84328430000096,45.84328430000096,45.84328430000096,45.84328430000096,45.84328430000096,,009,P021,2025_May_08_1246,ConditionRich,2021.2.3,59.93457541752222,
15.0,15.75,36,0.75,Stimuli/P009/things_pelican_05s.jpg,0,0,0.0,0,23,23,23,,,,,,,,,,,,,15.011884700001247,0.011884700001246529,None,46.09350369999993,46.09350369999993,46.09350369999993,46.09350369999993,46.09350369999993,46.09350369999993,46.09350369999993,46.09350369999993,46.09350369999993,46.09350369999993,,009,P021,2025_May_08_1246,ConditionRich,2021.2.3,59.93457541752222,
15.75,16.0,41,0.0,Stimuli/Blank.png,0,0,0.0,0,24,24,24,,,,,,,,,,,,,15.762686300000496,0.012686300000495976,None,46.84417070000018,46.84417070000018,46.84417070000018,46.84417070000018,46.84417070000018,46.84417070000018,46.84417070000018,46.84417070000018,46.84417070000018,46.84417070000018,,009,P021,2025_May_08_1246,ConditionRich,2021.2.3,59.93457541752222,
16.0,16.75,1,0.75,Stimuli/P009/sun_abqdlumenyzawlme.jpg,0,0,0.0,0,25,25,25,,,,,,,,,,,,,16.013163200001145,0.013163200001145015,None,47.09438840000075,47.09438840000075,47.09438840000075,47.09438840000075,47.09438840000075,47.09438840000075,47.09438840000075,47.09438840000075,47.09438840000075,47.09438840000075,,009,P021,2025_May_08_1246,ConditionRich,2021.2.3,59.93457541752222,
16.75,17.0,41,0.0,Stimuli/Blank.png,0,0,0.0,0,26,26,26,,,,,,,,,,,,,16.763548599999922,0.013548599999921862,None,47.845057700000325,47.845057700000325,47.845057700000325,47.845057700000325,47.845057700000325,47.845057700000325,47.845057700000325,47.845057700000325,47.845057700000325,47.845057700000325,,009,P021,2025_May_08_1246,ConditionRich,2021.2.3,59.93457541752222,
17.0,17.75,1,0.75,Stimuli/P009/sun_abqdlumenyzawlme.jpg,0,0,0.0,0,27,27,27,,,,,,,,,,,,,17.014322700000776,0.014322700000775512,None,48.09527180000077,48.09527180000077,48.09527180000077,48.09527180000077,48.09527180000077,48.09527180000077,48.09527180000077,48.09527180000077,48.09527180000077,48.09527180000077,,009,P021,2025_May_08_1246,ConditionRich,2021.2.3,59.93457541752222,
17.75,18.0,41,0.0,Stimuli/Blank.png,0,0,0.0,0,28,28,28,,,,,,,,,,,,,17.765815300001123,0.015815300001122523,None,48.845945299999585,48.845945299999585,48.845945299999585,48.845945299999585,48.845945299999585,48.845945299999585,48.845945299999585,48.845945299999585,48.845945299999585,48.845945299999585,,009,P021,2025_May_08_1246,ConditionRich,2021.2.3,59.93457541752222,
18.0,18.75,1,0.75,Stimuli/P009/sun_abqdlumenyzawlme.jpg,1,0,0.75,0,29,29,29,,,,,,,,,,,,,17.9979330999995,-0.002066900000500027,2,49.07948310000029,49.07948310000029,49.07948310000029,49.07948310000029,49.07948310000029,49.07948310000029,49.07948310000029,49.81350300000122,49.07948310000029,49.07948310000029,0.4992759999986447,009,P021,2025_May_08_1246,ConditionRich,2021.2.3,59.93457541752222,
18.75,19.0,41,0.0,Stimuli/Blank.png,0,0,0.0,0,30,30,30,,,,,,,,,,,,,18.766452699999718,0.01645269999971788,None,49.84683320000113,49.84683320000113,49.84683320000113,49.84683320000113,49.84683320000113,49.84683320000113,49.84683320000113,49.84683320000113,49.84683320000113,49.84683320000113,,009,P021,2025_May_08_1246,ConditionRich,2021.2.3,59.93457541752222,
19.0,19.75,1,0.75,Stimuli/P009/sun_abqdlumenyzawlme.jpg,0,0,0.0,0,31,31,31,,,,,,,,,,,,,19.000933200000873,0.0009332000008726027,None,50.09705419999955,50.09705419999955,50.09705419999955,50.09705419999955,50.09705419999955,50.09705419999955,50.09705419999955,50.09705419999955,50.09705419999955,50.09705419999955,,009,P021,2025_May_08_1246,ConditionRich,2021.2.3,59.93457541752222,
19.75,20.0,41,0.0,Stimuli/Blank.png,0,0,0.0,0,32,32,32,,,,,,,,,,,,,19.767681600000287,0.01768160000028729,None,50.847716300000684,50.847716300000684,50.847716300000684,50.847716300000684,50.847716300000684,50.847716300000684,50.847716300000684,50.847716300000684,50.847716300000684,50.847716300000684,,009,P021,2025_May_08_1246,ConditionRich,2021.2.3,59.93457541752222,
20.0,20.75,30,0.75,Stimuli/P009/things_fire_05s.jpg,0,0,0.0,0,33,33,33,,,,,,,,,,,,,20.000924899999518,0.0009248999995179474,None,51.09793990000071,51.09793990000071,51.09793990000071,51.09793990000071,51.09793990000071,51.09793990000071,51.09793990000071,51.09793990000071,51.09793990000071,51.09793990000071,,009,P021,2025_May_08_1246,ConditionRich,2021.2.3,59.93457541752222,
20.75,21.0,41,0.0,Stimuli/Blank.png,0,0,0.0,0,34,34,34,,,,,,,,,,,,,20.767945200001122,0.01794520000112243,None,51.848597100000916,51.848597100000916,51.848597100000916,51.848597100000916,51.848597100000916,51.848597100000916,51.848597100000916,51.848597100000916,51.848597100000916,51.848597100000916,,009,P021,2025_May_08_1246,ConditionRich,2021.2.3,59.93457541752222,
21.0,21.75,30,0.75,Stimuli/P009/things_fire_05s.jpg,0,0,0.0,0,35,35,35,,,,,,,,,,,,,21.00208080000084,0.0020808000008400995,None,52.09884070000044,52.09884070000044,52.09884070000044,52.09884070000044,52.09884070000044,52.09884070000044,52.09884070000044,52.09884070000044,52.09884070000044,52.09884070000044,,009,P021,2025_May_08_1246,ConditionRich,2021.2.3,59.93457541752222,
21.75,22.0,41,0.0,Stimuli/Blank.png,0,0,0.0,0,36,36,36,,,,,,,,,,,,,21.76883590000034,0.01883590000034019,None,52.84948489999988,52.84948489999988,52.84948489999988,52.84948489999988,52.84948489999988,52.84948489999988,52.84948489999988,52.84948489999988,52.84948489999988,52.84948489999988,,009,P021,2025_May_08_1246,ConditionRich,2021.2.3,59.93457541752222,
22.0,22.75,30,0.75,Stimuli/P009/things_fire_05s.jpg,0,0,0.0,0,37,37,37,,,,,,,,,,,,,22.001459400000385,0.001459400000385358,None,53.08302410000033,53.08302410000033,53.08302410000033,53.08302410000033,53.08302410000033,53.08302410000033,53.08302410000033,53.08302410000033,53.08302410000033,53.08302410000033,,009,P021,2025_May_08_1246,ConditionRich,2021.2.3,59.93457541752222,
22.75,23.0,41,0.0,Stimuli/Blank.png,0,0,0.0,0,38,38,38,,,,,,,,,,,,,22.75220679999984,0.002206799999839859,None,53.83368370000062,53.83368370000062,53.83368370000062,53.83368370000062,53.83368370000062,53.83368370000062,53.83368370000062,53.83368370000062,53.83368370000062,53.83368370000062,,009,P021,2025_May_08_1246,ConditionRich,2021.2.3,59.93457541752222,
23.0,23.75,30,0.75,Stimuli/P009/things_fire_05s.jpg,0,0,0.0,0,39,39,39,,,,,,,,,,,,,23.002405200000794,0.0024052000007941388,None,54.083903400000054,54.083903400000054,54.083903400000054,54.083903400000054,54.083903400000054,54.083903400000054,54.083903400000054,54.083903400000054,54.083903400000054,54.083903400000054,,009,P021,2025_May_08_1246,ConditionRich,2021.2.3,59.93457541752222,
23.75,24.0,41,0.0,Stimuli/Blank.png,0,0,0.0,0,40,40,40,,,,,,,,,,,,,23.752969200000734,0.0029692000007344177,None,54.83456380000098,54.83456380000098,54.83456380000098,54.83456380000098,54.83456380000098,54.83456380000098,54.83456380000098,54.83456380000098,54.83456380000098,54.83456380000098,,009,P021,2025_May_08_1246,ConditionRich,2021.2.3,59.93457541752222,
24.0,24.75,26,0.75,Stimuli/P009/things_cookie_sheet_05s.jpg,0,0,0.0,0,41,41,41,,,,,,,,,,,,,24.00391430000127,0.003914300001270021,None,55.101445800000874,55.101445800000874,55.101445800000874,55.101445800000874,55.101445800000874,55.101445800000874,55.101445800000874,55.101445800000874,55.101445800000874,55.101445800000874,,009,P021,2025_May_08_1246,ConditionRich,2021.2.3,59.93457541752222,
24.75,25.0,41,0.0,Stimuli/Blank.png,0,0,0.0,0,42,42,42,,,,,,,,,,,,,24.77152820000083,0.02152820000083011,None,55.852117700000235,55.852117700000235,55.852117700000235,55.852117700000235,55.852117700000235,55.852117700000235,55.852117700000235,55.852117700000235,55.852117700000235,55.852117700000235,,009,P021,2025_May_08_1246,ConditionRich,2021.2.3,59.93457541752222,
25.0,25.75,26,0.75,Stimuli/P009/things_cookie_sheet_05s.jpg,0,0,0.0,0,43,43,43,,,,,,,,,,,,,25.0067068999997,0.00670689999969909,None,56.102359599999545,56.102359599999545,56.102359599999545,56.102359599999545,56.102359599999545,56.102359599999545,56.102359599999545,56.102359599999545,56.102359599999545,56.102359599999545,,009,P021,2025_May_08_1246,ConditionRich,2021.2.3,59.93457541752222,
25.75,26.0,41,0.0,Stimuli/Blank.png,0,0,0.0,0,44,44,44,,,,,,,,,,,,,25.77136790000077,0.021367900000768714,None,56.85301849999996,56.85301849999996,56.85301849999996,56.85301849999996,56.85301849999996,56.85301849999996,56.85301849999996,56.85301849999996,56.85301849999996,56.85301849999996,,009,P021,2025_May_08_1246,ConditionRich,2021.2.3,59.93457541752222,
26.0,26.75,26,0.75,Stimuli/P009/things_cookie_sheet_05s.jpg,0,0,0.0,0,45,45,45,,,,,,,,,,,,,26.004896599999483,0.004896599999483442,None,57.08655870000075,57.08655870000075,57.08655870000075,57.08655870000075,57.08655870000075,57.08655870000075,57.08655870000075,57.08655870000075,57.08655870000075,57.08655870000075,,009,P021,2025_May_08_1246,ConditionRich,2021.2.3,59.93457541752222,
26.75,27.0,41,0.0,Stimuli/Blank.png,0,0,0.0,0,46,46,46,,,,,,,,,,,,,26.75577440000052,0.0057744000005186535,None,57.83722579999994,57.83722579999994,57.83722579999994,57.83722579999994,57.83722579999994,57.83722579999994,57.83722579999994,57.83722579999994,57.83722579999994,57.83722579999994,,009,P021,2025_May_08_1246,ConditionRich,2021.2.3,59.93457541752222,
27.0,27.75,26,0.75,Stimuli/P009/things_cookie_sheet_05s.jpg,0,0,0.0,0,47,47,47,,,,,,,,,,,,,27.0065222000012,0.006522200001199963,None,58.08744670000124,58.08744670000124,58.08744670000124,58.08744670000124,58.08744670000124,58.08744670000124,58.08744670000124,58.08744670000124,58.08744670000124,58.08744670000124,,009,P021,2025_May_08_1246,ConditionRich,2021.2.3,59.93457541752222,
27.75,28.0,41,0.0,Stimuli/Blank.png,0,0,0.0,0,48,48,48,,,,,,,,,,,,,27.757039300000542,0.0070393000005424256,None,58.83810730000005,58.83810730000005,58.83810730000005,58.83810730000005,58.83810730000005,58.83810730000005,58.83810730000005,58.83810730000005,58.83810730000005,58.83810730000005,,009,P021,2025_May_08_1246,ConditionRich,2021.2.3,59.93457541752222,
28.0,28.75,12,0.75,Stimuli/P009/sun_birmwgkdtrlevcaf.jpg,0,0,0.0,0,49,49,49,,,,,,,,,,,,,28.00719449999997,0.007194499999968684,None,59.088333600000624,59.088333600000624,59.088333600000624,59.088333600000624,59.088333600000624,59.088333600000624,59.088333600000624,59.088333600000624,59.088333600000624,59.088333600000624,,009,P021,2025_May_08_1246,ConditionRich,2021.2.3,59.93457541752222,
28.75,29.0,41,0.0,Stimuli/Blank.png,0,0,0.0,0,50,50,50,,,,,,,,,,,,,28.757906400000138,0.007906400000138092,None,59.839000800000576,59.839000800000576,59.839000800000576,59.839000800000576,59.839000800000576,59.839000800000576,59.839000800000576,59.839000800000576,59.839000800000576,59.839000800000576,,009,P021,2025_May_08_1246,ConditionRich,2021.2.3,59.93457541752222,
29.0,29.75,12,0.75,Stimuli/P009/sun_birmwgkdtrlevcaf.jpg,0,0,0.0,0,51,51,51,,,,,,,,,,,,,29.0086124999998,0.008612499999799184,None,60.105899000000136,60.105899000000136,60.105899000000136,60.105899000000136,60.105899000000136,60.105899000000136,60.105899000000136,60.105899000000136,60.105899000000136,60.105899000000136,,009,P021,2025_May_08_1246,ConditionRich,2021.2.3,59.93457541752222,
29.75,30.0,41,0.0,Stimuli/Blank.png,0,0,0.0,0,52,52,52,,,,,,,,,,,,,29.77556150000055,0.02556150000054913,None,60.856555300000764,60.856555300000764,60.856555300000764,60.856555300000764,60.856555300000764,60.856555300000764,60.856555300000764,60.856555300000764,60.856555300000764,60.856555300000764,,009,P021,2025_May_08_1246,ConditionRich,2021.2.3,59.93457541752222,
30.0,30.75,12,0.75,Stimuli/P009/sun_birmwgkdtrlevcaf.jpg,0,0,0.0,0,53,53,53,,,,,,,,,,,,,30.00838769999973,0.008387699999730103,None,61.106789200001,61.106789200001,61.106789200001,61.106789200001,61.106789200001,61.106789200001,61.106789200001,61.106789200001,61.106789200001,61.106789200001,,009,P021,2025_May_08_1246,ConditionRich,2021.2.3,59.93457541752222,
30.75,31.0,41,0.0,Stimuli/Blank.png,0,0,0.0,0,54,54,54,,,,,,,,,,,,,30.775936800000636,0.02593680000063614,None,61.85744169999998,61.85744169999998,61.85744169999998,61.85744169999998,61.85744169999998,61.85744169999998,61.85744169999998,61.85744169999998,61.85744169999998,61.85744169999998,,009,P021,2025_May_08_1246,ConditionRich,2021.2.3,59.93457541752222,
31.0,31.75,12,0.75,Stimuli/P009/sun_birmwgkdtrlevcaf.jpg,1,0,0.75,0,55,55,55,,,,,,,,,,,,,31.01034350000009,0.010343500000089989,2,62.107664099999965,62.107664099999965,62.107664099999965,62.107664099999965,62.107664099999965,62.107664099999965,62.107664099999965,62.824973700000555,62.107664099999965,62.107664099999965,0.4228990999999951,009,P021,2025_May_08_1246,ConditionRich,2021.2.3,59.93457541752222,
31.75,32.0,41,0.0,Stimuli/Blank.png,0,0,0.0,0,56,56,56,,,,,,,,,,,,,31.776728099999673,0.02672809999967285,None,62.858326300000044,62.858326300000044,62.858326300000044,62.858326300000044,62.858326300000044,62.858326300000044,62.858326300000044,62.858326300000044,62.858326300000044,62.858326300000044,,009,P021,2025_May_08_1246,ConditionRich,2021.2.3,59.93457541752222,
32.0,32.75,37,0.75,Stimuli/P009/things_pug_05s.jpg,0,0,0.0,0,57,57,57,,,,,,,,,,,,,32.01097860000118,0.010978600001180894,None,63.09194390000084,63.09194390000084,63.09194390000084,63.09194390000084,63.09194390000084,63.09194390000084,63.09194390000084,63.09194390000084,63.09194390000084,63.09194390000084,,009,P021,2025_May_08_1246,ConditionRich,2021.2.3,59.93457541752222,
32.75,33.0,41,0.0,Stimuli/Blank.png,0,0,0.0,0,58,58,58,,,,,,,,,,,,,32.761741399999664,0.011741399999664281,None,63.85925959999986,63.85925959999986,63.85925959999986,63.85925959999986,63.85925959999986,63.85925959999986,63.85925959999986,63.85925959999986,63.85925959999986,63.85925959999986,,009,P021,2025_May_08_1246,ConditionRich,2021.2.3,59.93457541752222,
33.0,33.75,37,0.75,Stimuli/P009/things_pug_05s.jpg,0,0,0.0,0,59,59,59,,,,,,,,,,,,,33.0306271999998,0.030627199999798904,None,64.12611629999992,64.12611629999992,64.12611629999992,64.12611629999992,64.12611629999992,64.12611629999992,64.12611629999992,64.12611629999992,64.12611629999992,64.12611629999992,,009,P021,2025_May_08_1246,ConditionRich,2021.2.3,59.93457541752222,
33.75,34.0,41,0.0,Stimuli/Blank.png,0,0,0.0,0,60,60,60,,,,,,,,,,,,,33.779139000000214,0.029139000000213855,None,64.86009430000013,64.86009430000013,64.86009430000013,64.86009430000013,64.86009430000013,64.86009430000013,64.86009430000013,64.86009430000013,64.86009430000013,64.86009430000013,,009,P021,2025_May_08_1246,ConditionRich,2021.2.3,59.93457541752222,
34.0,34.75,37,0.75,Stimuli/P009/things_pug_05s.jpg,0,0,0.0,0,61,61,61,,,,,,,,,,,,,34.012740199999826,0.012740199999825563,None,65.11034430000109,65.11034430000109,65.11034430000109,65.11034430000109,65.11034430000109,65.11034430000109,65.11034430000109,65.11034430000109,65.11034430000109,65.11034430000109,,009,P021,2025_May_08_1246,ConditionRich,2021.2.3,59.93457541752222,
34.75,35.0,41,0.0,Stimuli/Blank.png,0,0,0.0,0,62,62,62,,,,,,,,,,,,,34.78058020000026,0.03058020000025863,None,65.86098540000057,65.86098540000057,65.86098540000057,65.86098540000057,65.86098540000057,65.86098540000057,65.86098540000057,65.86098540000057,65.86098540000057,65.86098540000057,,009,P021,2025_May_08_1246,ConditionRich,2021.2.3,59.93457541752222,
35.0,35.75,37,0.75,Stimuli/P009/things_pug_05s.jpg,0,0,0.0,0,63,63,63,,,,,,,,,,,,,35.01564780000081,0.015647800000806456,None,66.11121249999997,66.11121249999997,66.11121249999997,66.11121249999997,66.11121249999997,66.11121249999997,66.11121249999997,66.11121249999997,66.11121249999997,66.11121249999997,,009,P021,2025_May_08_1246,ConditionRich,2021.2.3,59.93457541752222,
35.75,36.0,41,0.0,Stimuli/Blank.png,0,0,0.0,0,64,64,64,,,,,,,,,,,,,35.76511140000002,0.015111400000023423,None,66.8452158,66.8452158,66.8452158,66.8452158,66.8452158,66.8452158,66.8452158,66.8452158,66.8452158,66.8452158,,009,P021,2025_May_08_1246,ConditionRich,2021.2.3,59.93457541752222,
36.0,36.75,32,0.75,Stimuli/P009/things_hawk_05s.jpg,0,0,0.0,0,65,65,65,,,,,,,,,,,,,36.01536979999946,0.015369799999461975,None,67.09540709999965,67.09540709999965,67.09540709999965,67.09540709999965,67.09540709999965,67.09540709999965,67.09540709999965,67.09540709999965,67.09540709999965,67.09540709999965,,009,P021,2025_May_08_1246,ConditionRich,2021.2.3,59.93457541752222,
36.75,37.0,41,0.0,Stimuli/Blank.png,0,0,0.0,0,66,66,66,,,,,,,,,,,,,36.74920259999999,-0.0007974000000103842,None,67.82939380000062,67.82939380000062,67.82939380000062,67.82939380000062,67.82939380000062,67.82939380000062,67.82939380000062,67.82939380000062,67.82939380000062,67.82939380000062,,009,P021,2025_May_08_1246,ConditionRich,2021.2.3,59.93457541752222,
37.0,37.75,32,0.75,Stimuli/P009/things_hawk_05s.jpg,0,0,0.0,0,67,67,67,,,,,,,,,,,,,37.00104939999983,0.0010493999998288928,None,68.0962999000003,68.0962999000003,68.0962999000003,68.0962999000003,68.0962999000003,68.0962999000003,68.0962999000003,68.0962999000003,68.0962999000003,68.0962999000003,,009,P021,2025_May_08_1246,ConditionRich,2021.2.3,59.93457541752222,
37.75,38.0,41,0.0,Stimuli/Blank.png,0,0,0.0,0,68,68,68,,,,,,,,,,,,,37.76656560000083,0.016565600000831182,None,68.84695810000085,68.84695810000085,68.84695810000085,68.84695810000085,68.84695810000085,68.84695810000085,68.84695810000085,68.84695810000085,68.84695810000085,68.84695810000085,,009,P021,2025_May_08_1246,ConditionRich,2021.2.3,59.93457541752222,
38.0,38.75,32,0.75,Stimuli/P009/things_hawk_05s.jpg,0,0,0.0,0,69,69,69,,,,,,,,,,,,,38.00177590000021,0.00177590000021155,None,69.09718570000041,69.09718570000041,69.09718570000041,69.09718570000041,69.09718570000041,69.09718570000041,69.09718570000041,69.09718570000041,69.09718570000041,69.09718570000041,,009,P021,2025_May_08_1246,ConditionRich,2021.2.3,59.93457541752222,
38.75,39.0,41,0.0,Stimuli/Blank.png,0,0,0.0,0,70,70,70,,,,,,,,,,,,,38.767211500000485,0.017211500000485103,None,69.84784039999977,69.84784039999977,69.84784039999977,69.84784039999977,69.84784039999977,69.84784039999977,69.84784039999977,69.84784039999977,69.84784039999977,69.84784039999977,,009,P021,2025_May_08_1246,ConditionRich,2021.2.3,59.93457541752222,
39.0,39.75,32,0.75,Stimuli/P009/things_hawk_05s.jpg,0,0,0.0,0,71,71,71,,,,,,,,,,,,,39.00048559999959,0.0004855999995925231,None,70.08137780000106,70.08137780000106,70.08137780000106,70.08137780000106,70.08137780000106,70.08137780000106,70.08137780000106,70.08137780000106,70.08137780000106,70.08137780000106,,009,P021,2025_May_08_1246,ConditionRich,2021.2.3,59.93457541752222,
39.75,40.0,41,0.0,Stimuli/Blank.png,0,0,0.0,0,72,72,72,,,,,,,,,,,,,39.75122910000027,0.00122910000027332,None,70.83205310000085,70.83205310000085,70.83205310000085,70.83205310000085,70.83205310000085,70.83205310000085,70.83205310000085,70.83205310000085,70.83205310000085,70.83205310000085,,009,P021,2025_May_08_1246,ConditionRich,2021.2.3,59.93457541752222,
40.0,40.75,29,0.75,Stimuli/P009/things_fingerprint_05s.jpg,0,0,0.0,0,73,73,73,,,,,,,,,,,,,40.00183939999988,0.0018393999998806976,None,71.08226690000083,71.08226690000083,71.08226690000083,71.08226690000083,71.08226690000083,71.08226690000083,71.08226690000083,71.08226690000083,71.08226690000083,71.08226690000083,,009,P021,2025_May_08_1246,ConditionRich,2021.2.3,59.93457541752222,
40.75,41.0,41,0.0,Stimuli/Blank.png,0,0,0.0,0,74,74,74,,,,,,,,,,,,,40.75142220000089,0.0014222000008885516,None,71.83292650000112,71.83292650000112,71.83292650000112,71.83292650000112,71.83292650000112,71.83292650000112,71.83292650000112,71.83292650000112,71.83292650000112,71.83292650000112,,009,P021,2025_May_08_1246,ConditionRich,2021.2.3,59.93457541752222,
41.0,41.75,29,0.75,Stimuli/P009/things_fingerprint_05s.jpg,0,0,0.0,0,75,75,75,,,,,,,,,,,,,41.00150759999997,0.001507599999968079,None,72.08314120000068,72.08314120000068,72.08314120000068,72.08314120000068,72.08314120000068,72.08314120000068,72.08314120000068,72.08314120000068,72.08314120000068,72.08314120000068,,009,P021,2025_May_08_1246,ConditionRich,2021.2.3,59.93457541752222,
41.75,42.0,41,0.0,Stimuli/Blank.png,0,0,0.0,0,76,76,76,,,,,,,,,,,,,41.75218440000026,0.0021844000002602115,None,72.83380810000017,72.83380810000017,72.83380810000017,72.83380810000017,72.83380810000017,72.83380810000017,72.83380810000017,72.83380810000017,72.83380810000017,72.83380810000017,,009,P021,2025_May_08_1246,ConditionRich,2021.2.3,59.93457541752222,
42.0,42.75,29,0.75,Stimuli/P009/things_fingerprint_05s.jpg,0,0,0.0,0,77,77,77,,,,,,,,,,,,,42.00322090000009,0.0032209000000875676,None,73.10071980000066,73.10071980000066,73.10071980000066,73.10071980000066,73.10071980000066,73.10071980000066,73.10071980000066,73.10071980000066,73.10071980000066,73.10071980000066,,009,P021,2025_May_08_1246,ConditionRich,2021.2.3,59.93457541752222,
42.75,43.0,41,0.0,Stimuli/Blank.png,0,0,0.0,0,78,78,78,,,,,,,,,,,,,42.770522799999526,0.020522799999525887,None,73.85138730000108,73.85138730000108,73.85138730000108,73.85138730000108,73.85138730000108,73.85138730000108,73.85138730000108,73.85138730000108,73.85138730000108,73.85138730000108,,009,P021,2025_May_08_1246,ConditionRich,2021.2.3,59.93457541752222,
43.0,43.75,29,0.75,Stimuli/P009/things_fingerprint_05s.jpg,0,0,0.0,0,79,79,79,,,,,,,,,,,,,43.00559609999982,0.005596099999820581,None,74.10160780000115,74.10160780000115,74.10160780000115,74.10160780000115,74.10160780000115,74.10160780000115,74.10160780000115,74.10160780000115,74.10160780000115,74.10160780000115,,009,P021,2025_May_08_1246,ConditionRich,2021.2.3,59.93457541752222,
43.75,44.0,41,0.0,Stimuli/Blank.png,0,0,0.0,0,80,80,80,,,,,,,,,,,,,43.77237260000038,0.02237260000038077,None,74.86896069999966,74.86896069999966,74.86896069999966,74.86896069999966,74.86896069999966,74.86896069999966,74.86896069999966,74.86896069999966,74.86896069999966,74.86896069999966,,009,P021,2025_May_08_1246,ConditionRich,2021.2.3,59.93457541752222,
44.0,44.75,19,0.75,Stimuli/P009/sun_bwvfnogmotsvhofs.jpg,0,0,0.0,0,81,81,81,,,,,,,,,,,,,44.02092620000076,0.0209262000007584,None,75.10249170000134,75.10249170000134,75.10249170000134,75.10249170000134,75.10249170000134,75.10249170000134,75.10249170000134,75.10249170000134,75.10249170000134,75.10249170000134,,009,P021,2025_May_08_1246,ConditionRich,2021.2.3,59.93457541752222,
44.75,45.0,41,0.0,Stimuli/Blank.png,0,0,0.0,0,82,82,82,,,,,,,,,,,,,44.756712000000334,0.006712000000334228,None,75.8531879000002,75.8531879000002,75.8531879000002,75.8531879000002,75.8531879000002,75.8531879000002,75.8531879000002,75.8531879000002,75.8531879000002,75.8531879000002,,009,P021,2025_May_08_1246,ConditionRich,2021.2.3,59.93457541752222,
45.0,45.75,19,0.75,Stimuli/P009/sun_bwvfnogmotsvhofs.jpg,1,0,0.75,0,83,83,83,,,,,,,,,,,,,45.02253449999989,0.022534499999892432,2,76.1033679000011,76.1033679000011,76.1033679000011,76.1033679000011,76.1033679000011,76.1033679000011,76.1033679000011,None,76.1033679000011,76.1033679000011,0.6742338000003656,009,P021,2025_May_08_1246,ConditionRich,2021.2.3,59.93457541752222,
45.75,46.0,41,0.0,Stimuli/Blank.png,0,0,0.0,0,84,84,84,,,,,,,,,,,,,45.757076199999574,0.007076199999573873,None,76.83736330000102,76.83736330000102,76.83736330000102,76.83736330000102,76.83736330000102,76.83736330000102,76.83736330000102,76.83736330000102,76.83736330000102,76.83736330000102,,009,P021,2025_May_08_1246,ConditionRich,2021.2.3,59.93457541752222,
46.0,46.75,19,0.75,Stimuli/P009/sun_bwvfnogmotsvhofs.jpg,0,0,0.0,0,85,85,85,,,,,,,,,,,,,46.005923300001086,0.005923300001086318,None,77.08757289999994,77.08757289999994,77.08757289999994,77.08757289999994,77.08757289999994,77.08757289999994,77.08757289999994,77.08757289999994,77.08757289999994,77.08757289999994,,009,P021,2025_May_08_1246,ConditionRich,2021.2.3,59.93457541752222,
46.75,47.0,41,0.0,Stimuli/Blank.png,0,0,0.0,0,86,86,86,,,,,,,,,,,,,46.75731100000121,0.007311000001209322,None,77.83823190000112,77.83823190000112,77.83823190000112,77.83823190000112,77.83823190000112,77.83823190000112,77.83823190000112,77.83823190000112,77.83823190000112,77.83823190000112,,009,P021,2025_May_08_1246,ConditionRich,2021.2.3,59.93457541752222,
47.0,47.75,19,0.75,Stimuli/P009/sun_bwvfnogmotsvhofs.jpg,0,0,0.0,0,87,87,87,,,,,,,,,,,,,47.00772810000126,0.007728100001259008,None,78.08845850000034,78.08845850000034,78.08845850000034,78.08845850000034,78.08845850000034,78.08845850000034,78.08845850000034,78.08845850000034,78.08845850000034,78.08845850000034,,009,P021,2025_May_08_1246,ConditionRich,2021.2.3,59.93457541752222,
47.75,48.0,41,0.0,Stimuli/Blank.png,0,0,0.0,0,88,88,88,,,,,,,,,,,,,47.75811210000029,0.008112100000289502,None,78.8391173,78.8391173,78.8391173,78.8391173,78.8391173,78.8391173,78.8391173,78.8391173,78.8391173,78.8391173,,009,P021,2025_May_08_1246,ConditionRich,2021.2.3,59.93457541752222,
48.0,48.75,14,0.75,Stimuli/P009/sun_blaqxdebghixzyyw.jpg,0,0,0.0,0,89,89,89,,,,,,,,,,,,,48.01070660000005,0.010706600000048638,None,79.10603319999973,79.10603319999973,79.10603319999973,79.10603319999973,79.10603319999973,79.10603319999973,79.10603319999973,79.10603319999973,79.10603319999973,79.10603319999973,,009,P021,2025_May_08_1246,ConditionRich,2021.2.3,59.93457541752222,
48.75,49.0,41,0.0,Stimuli/Blank.png,0,0,0.0,0,90,90,90,,,,,,,,,,,,,48.77620940000088,0.026209400000880123,None,79.85668830000031,79.85668830000031,79.85668830000031,79.85668830000031,79.85668830000031,79.85668830000031,79.85668830000031,79.85668830000031,79.85668830000031,79.85668830000031,,009,P021,2025_May_08_1246,ConditionRich,2021.2.3,59.93457541752222,
49.0,49.75,14,0.75,Stimuli/P009/sun_blaqxdebghixzyyw.jpg,0,0,0.0,0,91,91,91,,,,,,,,,,,,,49.0109637000005,0.010963700000502286,None,80.10687909999979,80.10687909999979,80.10687909999979,80.10687909999979,80.10687909999979,80.10687909999979,80.10687909999979,80.10687909999979,80.10687909999979,80.10687909999979,,009,P021,2025_May_08_1246,ConditionRich,2021.2.3,59.93457541752222,
49.75,50.0,41,0.0,Stimuli/Blank.png,0,0,0.0,0,92,92,92,,,,,,,,,,,,,49.77656170000046,0.026561700000456767,None,80.85754140000063,80.85754140000063,80.85754140000063,80.85754140000063,80.85754140000063,80.85754140000063,80.85754140000063,80.85754140000063,80.85754140000063,80.85754140000063,,009,P021,2025_May_08_1246,ConditionRich,2021.2.3,59.93457541752222,
50.0,50.75,14,0.75,Stimuli/P009/sun_blaqxdebghixzyyw.jpg,0,0,0.0,0,93,93,93,,,,,,,,,,,,,50.01110560000052,0.011105600000519189,None,81.09111649999977,81.09111649999977,81.09111649999977,81.09111649999977,81.09111649999977,81.09111649999977,81.09111649999977,81.09111649999977,81.09111649999977,81.09111649999977,,009,P021,2025_May_08_1246,ConditionRich,2021.2.3,59.93457541752222,
50.75,51.0,41,0.0,Stimuli/Blank.png,0,0,0.0,0,94,94,94,,,,,,,,,,,,,50.76079759999993,0.010797599999932572,None,81.8417714999996,81.8417714999996,81.8417714999996,81.8417714999996,81.8417714999996,81.8417714999996,81.8417714999996,81.8417714999996,81.8417714999996,81.8417714999996,,009,P021,2025_May_08_1246,ConditionRich,2021.2.3,59.93457541752222,
51.0,51.75,14,0.75,Stimuli/P009/sun_blaqxdebghixzyyw.jpg,0,0,0.0,0,95,95,95,,,,,,,,,,,,,51.01185749999968,0.011857499999678112,None,82.1086819000011,82.1086819000011,82.1086819000011,82.1086819000011,82.1086819000011,82.1086819000011,82.1086819000011,82.1086819000011,82.1086819000011,82.1086819000011,,009,P021,2025_May_08_1246,ConditionRich,2021.2.3,59.93457541752222,
51.75,52.0,41,0.0,Stimuli/Blank.png,0,0,0.0,0,96,96,96,,,,,,,,,,,,,51.7782113000012,0.0282113000012032,None,82.85933710000063,82.85933710000063,82.85933710000063,82.85933710000063,82.85933710000063,82.85933710000063,82.85933710000063,82.85933710000063,82.85933710000063,82.85933710000063,,009,P021,2025_May_08_1246,ConditionRich,2021.2.3,59.93457541752222,
52.0,52.75,5,0.75,Stimuli/P009/sun_akqvdmuauoxeafrj.jpg,0,0,0.0,0,97,97,97,,,,,,,,,,,,,52.01307269999961,0.013072699999611359,None,83.10956070000066,83.10956070000066,83.10956070000066,83.10956070000066,83.10956070000066,83.10956070000066,83.10956070000066,83.10956070000066,83.10956070000066,83.10956070000066,,009,P021,2025_May_08_1246,ConditionRich,2021.2.3,59.93457541752222,
52.75,53.0,41,0.0,Stimuli/Blank.png,0,0,0.0,0,98,98,98,,,,,,,,,,,,,52.77917259999958,0.029172599999583326,None,83.86028930000066,83.86028930000066,83.86028930000066,83.86028930000066,83.86028930000066,83.86028930000066,83.86028930000066,83.86028930000066,83.86028930000066,83.86028930000066,,009,P021,2025_May_08_1246,ConditionRich,2021.2.3,59.93457541752222,
53.0,53.75,5,0.75,Stimuli/P009/sun_akqvdmuauoxeafrj.jpg,0,0,0.0,0,99,99,99,,,,,,,,,,,,,53.01226880000104,0.012268800001038471,None,84.11046030000034,84.11046030000034,84.11046030000034,84.11046030000034,84.11046030000034,84.11046030000034,84.11046030000034,84.11046030000034,84.11046030000034,84.11046030000034,,009,P021,2025_May_08_1246,ConditionRich,2021.2.3,59.93457541752222,
53.75,54.0,41,0.0,Stimuli/Blank.png,0,0,0.0,0,100,100,100,,,,,,,,,,,,,53.7817828999996,0.03178289999959816,None,84.87780200000088,84.87780200000088,84.87780200000088,84.87780200000088,84.87780200000088,84.87780200000088,84.87780200000088,84.87780200000088,84.87780200000088,84.87780200000088,,009,P021,2025_May_08_1246,ConditionRich,2021.2.3,59.93457541752222,
54.0,54.75,5,0.75,Stimuli/P009/sun_akqvdmuauoxeafrj.jpg,0,0,0.0,0,101,101,101,,,,,,,,,,,,,54.030441700000665,0.03044170000066515,None,85.11132060000091,85.11132060000091,85.11132060000091,85.11132060000091,85.11132060000091,85.11132060000091,85.11132060000091,85.11132060000091,85.11132060000091,85.11132060000091,,009,P021,2025_May_08_1246,ConditionRich,2021.2.3,59.93457541752222,
54.75,55.0,41,0.0,Stimuli/Blank.png,0,0,0.0,0,102,102,102,,,,,,,,,,,,,54.7660149000003,0.01601490000030026,None,85.86200530000133,85.86200530000133,85.86200530000133,85.86200530000133,85.86200530000133,85.86200530000133,85.86200530000133,85.86200530000133,85.86200530000133,85.86200530000133,,009,P021,2025_May_08_1246,ConditionRich,2021.2.3,59.93457541752222,
55.0,55.75,5,0.75,Stimuli/P009/sun_akqvdmuauoxeafrj.jpg,0,0,0.0,0,103,103,103,,,,,,,,,,,,,55.01691220000066,0.01691220000066096,None,86.11222610000004,86.11222610000004,86.11222610000004,86.11222610000004,86.11222610000004,86.11222610000004,86.11222610000004,86.11222610000004,86.11222610000004,86.11222610000004,,009,P021,2025_May_08_1246,ConditionRich,2021.2.3,59.93457541752222,
55.75,56.0,41,0.0,Stimuli/Blank.png,0,0,0.0,0,104,104,104,,,,,,,,,,,,,55.765369400000054,0.015369400000054156,None,86.84619440000097,86.84619440000097,86.84619440000097,86.84619440000097,86.84619440000097,86.84619440000097,86.84619440000097,86.84619440000097,86.84619440000097,86.84619440000097,,009,P021,2025_May_08_1246,ConditionRich,2021.2.3,59.93457541752222,
56.0,56.75,28,0.75,Stimuli/P009/things_face_05s.jpg,0,0,0.0,0,105,105,105,,,,,,,,,,,,,56.015507300000536,0.015507300000535906,None,87.09642069999973,87.09642069999973,87.09642069999973,87.09642069999973,87.09642069999973,87.09642069999973,87.09642069999973,87.09642069999973,87.09642069999973,87.09642069999973,,009,P021,2025_May_08_1246,ConditionRich,2021.2.3,59.93457541752222,
56.75,57.0,41,0.0,Stimuli/Blank.png,0,0,0.0,0,106,106,106,,,,,,,,,,,,,56.74935370000094,-0.0006462999990617391,None,87.830450200001,87.830450200001,87.830450200001,87.830450200001,87.830450200001,87.830450200001,87.830450200001,87.830450200001,87.830450200001,87.830450200001,,009,P021,2025_May_08_1246,ConditionRich,2021.2.3,59.93457541752222,
57.0,57.75,28,0.75,Stimuli/P009/things_face_05s.jpg,0,0,0.0,0,107,107,107,,,,,,,,,,,,,57.00199380000049,0.0019938000004913192,None,88.09730690000106,88.09730690000106,88.09730690000106,88.09730690000106,88.09730690000106,88.09730690000106,88.09730690000106,88.09730690000106,88.09730690000106,88.09730690000106,,009,P021,2025_May_08_1246,ConditionRich,2021.2.3,59.93457541752222,
57.75,58.0,41,0.0,Stimuli/Blank.png,0,0,0.0,0,108,108,108,,,,,,,,,,,,,57.767391499999576,0.0173914999995759,None,88.8479669999997,88.8479669999997,88.8479669999997,88.8479669999997,88.8479669999997,88.8479669999997,88.8479669999997,88.8479669999997,88.8479669999997,88.8479669999997,,009,P021,2025_May_08_1246,ConditionRich,2021.2.3,59.93457541752222,
58.0,58.75,28,0.75,Stimuli/P009/things_face_05s.jpg,0,0,0.0,0,109,109,109,,,,,,,,,,,,,58.000585400001,0.0005854000010003801,None,89.08149980000053,89.08149980000053,89.08149980000053,89.08149980000053,89.08149980000053,89.08149980000053,89.08149980000053,89.08149980000053,89.08149980000053,89.08149980000053,,009,P021,2025_May_08_1246,ConditionRich,2021.2.3,59.93457541752222,
58.75,59.0,41,0.0,Stimuli/Blank.png,0,0,0.0,0,110,110,110,,,,,,,,,,,,,58.75209410000025,0.0020941000002494548,None,89.84887479999998,89.84887479999998,89.84887479999998,89.84887479999998,89.84887479999998,89.84887479999998,89.84887479999998,89.84887479999998,89.84887479999998,89.84887479999998,,009,P021,2025_May_08_1246,ConditionRich,2021.2.3,59.93457541752222,
59.0,59.75,28,0.75,Stimuli/P009/things_face_05s.jpg,0,0,0.0,0,111,111,111,,,,,,,,,,,,,59.017608300000575,0.017608300000574673,None,90.09907000000021,90.09907000000021,90.09907000000021,90.09907000000021,90.09907000000021,90.09907000000021,90.09907000000021,90.09907000000021,90.09907000000021,90.09907000000021,,009,P021,2025_May_08_1246,ConditionRich,2021.2.3,59.93457541752222,
59.75,60.0,41,0.0,Stimuli/Blank.png,0,0,0.0,0,112,112,112,,,,,,,,,,,,,59.751574699999765,0.0015746999997645617,None,90.83305520000067,90.83305520000067,90.83305520000067,90.83305520000067,90.83305520000067,90.83305520000067,90.83305520000067,90.83305520000067,90.83305520000067,90.83305520000067,,009,P021,2025_May_08_1246,ConditionRich,2021.2.3,59.93457541752222,
60.0,60.75,16,0.75,Stimuli/P009/sun_bqpyqljaflidcauh.jpg,0,0,0.0,0,113,113,113,,,,,,,,,,,,,60.00225070000124,0.002250700001241057,None,91.08324410000023,91.08324410000023,91.08324410000023,91.08324410000023,91.08324410000023,91.08324410000023,91.08324410000023,91.08324410000023,91.08324410000023,91.08324410000023,,009,P021,2025_May_08_1246,ConditionRich,2021.2.3,59.93457541752222,
60.75,61.0,41,0.0,Stimuli/Blank.png,0,0,0.0,0,114,114,114,,,,,,,,,,,,,60.75244510000084,0.002445100000841194,None,91.8339429000007,91.8339429000007,91.8339429000007,91.8339429000007,91.8339429000007,91.8339429000007,91.8339429000007,91.8339429000007,91.8339429000007,91.8339429000007,,009,P021,2025_May_08_1246,ConditionRich,2021.2.3,59.93457541752222,
61.0,61.75,16,0.75,Stimuli/P009/sun_bqpyqljaflidcauh.jpg,0,0,0.0,0,115,115,115,,,,,,,,,,,,,61.00337480000053,0.0033748000005289214,None,92.08415380000042,92.08415380000042,92.08415380000042,92.08415380000042,92.08415380000042,92.08415380000042,92.08415380000042,92.08415380000042,92.08415380000042,92.08415380000042,,009,P021,2025_May_08_1246,ConditionRich,2021.2.3,59.93457541752222,
61.75,62.0,41,0.0,Stimuli/Blank.png,0,0,0.0,0,116,116,116,,,,,,,,,,,,,61.75622620000104,0.006226200001037796,None,92.85151570000016,92.85151570000016,92.85151570000016,92.85151570000016,92.85151570000016,92.85151570000016,92.85151570000016,92.85151570000016,92.85151570000016,92.85151570000016,,009,P021,2025_May_08_1246,ConditionRich,2021.2.3,59.93457541752222,
62.0,62.75,16,0.75,Stimuli/P009/sun_bqpyqljaflidcauh.jpg,0,0,0.0,0,117,117,117,,,,,,,,,,,,,62.02107810000052,0.02107810000052268,None,93.1017267999996,93.1017267999996,93.1017267999996,93.1017267999996,93.1017267999996,93.1017267999996,93.1017267999996,93.1017267999996,93.1017267999996,93.1017267999996,,009,P021,2025_May_08_1246,ConditionRich,2021.2.3,59.93457541752222,
62.75,63.0,41,0.0,Stimuli/Blank.png,0,0,0.0,0,118,118,118,,,,,,,,,,,,,62.75698879999982,0.0069887999998172745,None,93.85239550000006,93.85239550000006,93.85239550000006,93.85239550000006,93.85239550000006,93.85239550000006,93.85239550000006,93.85239550000006,93.85239550000006,93.85239550000006,,009,P021,2025_May_08_1246,ConditionRich,2021.2.3,59.93457541752222,
63.0,63.75,16,0.75,Stimuli/P009/sun_bqpyqljaflidcauh.jpg,0,0,0.0,0,119,119,119,,,,,,,,,,,,,63.02159080000092,0.021590800000922172,None,94.10263169999962,94.10263169999962,94.10263169999962,94.10263169999962,94.10263169999962,94.10263169999962,94.10263169999962,94.10263169999962,94.10263169999962,94.10263169999962,,009,P021,2025_May_08_1246,ConditionRich,2021.2.3,59.93457541752222,
63.75,64.0,41,0.0,Stimuli/Blank.png,0,0,0.0,0,120,120,120,,,,,,,,,,,,,63.75589039999977,0.005890399999771034,None,94.83660070000042,94.83660070000042,94.83660070000042,94.83660070000042,94.83660070000042,94.83660070000042,94.83660070000042,94.83660070000042,94.83660070000042,94.83660070000042,,009,P021,2025_May_08_1246,ConditionRich,2021.2.3,59.93457541752222,
64.0,64.75,31,0.75,Stimuli/P009/things_girl_05s.jpg,0,0,0.0,0,121,121,121,,,,,,,,,,,,,64.00601389999974,0.006013899999743444,None,95.08680900000036,95.08680900000036,95.08680900000036,95.08680900000036,95.08680900000036,95.08680900000036,95.08680900000036,95.08680900000036,95.08680900000036,95.08680900000036,,009,P021,2025_May_08_1246,ConditionRich,2021.2.3,59.93457541752222,
64.75,65.0,41,0.0,Stimuli/Blank.png,0,0,0.0,0,122,122,122,,,,,,,,,,,,,64.7559868999997,0.0059868999996979255,None,95.83747670000048,95.83747670000048,95.83747670000048,95.83747670000048,95.83747670000048,95.83747670000048,95.83747670000048,95.83747670000048,95.83747670000048,95.83747670000048,,009,P021,2025_May_08_1246,ConditionRich,2021.2.3,59.93457541752222,
65.0,65.75,31,0.75,Stimuli/P009/things_girl_05s.jpg,0,0,0.0,0,123,123,123,,,,,,,,,,,,,65.00681980000081,0.006819800000812393,None,96.08769960000063,96.08769960000063,96.08769960000063,96.08769960000063,96.08769960000063,96.08769960000063,96.08769960000063,96.08769960000063,96.08769960000063,96.08769960000063,,009,P021,2025_May_08_1246,ConditionRich,2021.2.3,59.93457541752222,
65.75,66.0,41,0.0,Stimuli/Blank.png,0,0,0.0,0,124,124,124,,,,,,,,,,,,,65.75782480000089,0.007824800000889809,None,96.83837490000042,96.83837490000042,96.83837490000042,96.83837490000042,96.83837490000042,96.83837490000042,96.83837490000042,96.83837490000042,96.83837490000042,96.83837490000042,,009,P021,2025_May_08_1246,ConditionRich,2021.2.3,59.93457541752222,
66.0,66.75,31,0.75,Stimuli/P009/things_girl_05s.jpg,0,0,0.0,0,125,125,125,,,,,,,,,,,,,66.0073465000005,0.007346500000494416,None,97.08858110000074,97.08858110000074,97.08858110000074,97.08858110000074,97.08858110000074,97.08858110000074,97.08858110000074,97.08858110000074,97.08858110000074,97.08858110000074,,009,P021,2025_May_08_1246,ConditionRich,2021.2.3,59.93457541752222,
66.75,67.0,41,0.0,Stimuli/Blank.png,0,0,0.0,0,126,126,126,,,,,,,,,,,,,66.75798720000057,0.007987200000570738,None,97.8393259000004,97.8393259000004,97.8393259000004,97.8393259000004,97.8393259000004,97.8393259000004,97.8393259000004,97.8393259000004,97.8393259000004,97.8393259000004,,009,P021,2025_May_08_1246,ConditionRich,2021.2.3,59.93457541752222,
67.0,67.75,31,0.75,Stimuli/P009/things_girl_05s.jpg,0,0,0.0,0,127,127,127,,,,,,,,,,,,,67.0079265000004,0.007926500000394299,None,98.08943610000097,98.08943610000097,98.08943610000097,98.08943610000097,98.08943610000097,98.08943610000097,98.08943610000097,98.08943610000097,98.08943610000097,98.08943610000097,,009,P021,2025_May_08_1246,ConditionRich,2021.2.3,59.93457541752222,
67.75,68.0,41,0.0,Stimuli/Blank.png,0,0,0.0,0,128,128,128,,,,,,,,,,,,,67.76085220000095,0.010852200000954326,None,98.85682570000063,98.85682570000063,98.85682570000063,98.85682570000063,98.85682570000063,98.85682570000063,98.85682570000063,98.85682570000063,98.85682570000063,98.85682570000063,,009,P021,2025_May_08_1246,ConditionRich,2021.2.3,59.93457541752222,
68.0,68.75,8,0.75,Stimuli/P009/sun_batcnoizlkeiqdtx.jpg,0,0,0.0,0,129,129,129,,,,,,,,,,,,,68.02540899999985,0.02540899999985413,None,99.10700960000031,99.10700960000031,99.10700960000031,99.10700960000031,99.10700960000031,99.10700960000031,99.10700960000031,99.10700960000031,99.10700960000031,99.10700960000031,,009,P021,2025_May_08_1246,ConditionRich,2021.2.3,59.93457541752222,
68.75,69.0,41,0.0,Stimuli/Blank.png,0,0,0.0,0,130,130,130,,,,,,,,,,,,,68.76012360000095,0.010123600000952138,None,99.84101100000044,99.84101100000044,99.84101100000044,99.84101100000044,99.84101100000044,99.84101100000044,99.84101100000044,99.84101100000044,99.84101100000044,99.84101100000044,,009,P021,2025_May_08_1246,ConditionRich,2021.2.3,59.93457541752222,
69.0,69.75,8,0.75,Stimuli/P009/sun_batcnoizlkeiqdtx.jpg,0,0,0.0,0,131,131,131,,,,,,,,,,,,,69.01028260000021,0.01028260000020964,None,100.10792020000008,100.10792020000008,100.10792020000008,100.10792020000008,100.10792020000008,100.10792020000008,100.10792020000008,100.10792020000008,100.10792020000008,100.10792020000008,,009,P021,2025_May_08_1246,ConditionRich,2021.2.3,59.93457541752222,
69.75,70.0,41,0.0,Stimuli/Blank.png,0,0,0.0,0,132,132,132,,,,,,,,,,,,,69.77708879999955,0.02708879999954661,None,100.85858270000062,100.85858270000062,100.85858270000062,100.85858270000062,100.85858270000062,100.85858270000062,100.85858270000062,100.85858270000062,100.85858270000062,100.85858270000062,,009,P021,2025_May_08_1246,ConditionRich,2021.2.3,59.93457541752222,
70.0,70.75,8,0.75,Stimuli/P009/sun_batcnoizlkeiqdtx.jpg,0,0,0.0,0,133,133,133,,,,,,,,,,,,,70.01105410000127,0.011054100001274492,None,101.09211909999976,101.09211909999976,101.09211909999976,101.09211909999976,101.09211909999976,101.09211909999976,101.09211909999976,101.09211909999976,101.09211909999976,101.09211909999976,,009,P021,2025_May_08_1246,ConditionRich,2021.2.3,59.93457541752222,
70.75,71.0,41,0.0,Stimuli/Blank.png,0,0,0.0,0,134,134,134,,,,,,,,,,,,,70.76114510000116,0.011145100001158426,None,101.84278149999955,101.84278149999955,101.84278149999955,101.84278149999955,101.84278149999955,101.84278149999955,101.84278149999955,101.84278149999955,101.84278149999955,101.84278149999955,,009,P021,2025_May_08_1246,ConditionRich,2021.2.3,59.93457541752222,
71.0,71.75,8,0.75,Stimuli/P009/sun_batcnoizlkeiqdtx.jpg,0,0,0.0,0,135,135,135,,,,,,,,,,,,,71.01151610000124,0.011516100001244922,None,102.09299939999983,102.09299939999983,102.09299939999983,102.09299939999983,102.09299939999983,102.09299939999983,102.09299939999983,102.09299939999983,102.09299939999983,102.09299939999983,,009,P021,2025_May_08_1246,ConditionRich,2021.2.3,59.93457541752222,
71.75,72.0,41,0.0,Stimuli/Blank.png,0,0,0.0,0,136,136,136,,,,,,,,,,,,,71.76202920000105,0.012029200001052232,None,102.84366640000007,102.84366640000007,102.84366640000007,102.84366640000007,102.84366640000007,102.84366640000007,102.84366640000007,102.84366640000007,102.84366640000007,102.84366640000007,,009,P021,2025_May_08_1246,ConditionRich,2021.2.3,59.93457541752222,
72.0,72.75,39,0.75,Stimuli/P009/things_tiara_05s.jpg,1,0,0.75,0,137,137,137,,,,,,,,,,,,,72.01306450000084,0.013064500000837143,None,103.09389190000002,103.09389190000002,103.09389190000002,103.09389190000002,103.09389190000002,103.09389190000002,103.09389190000002,103.8279308000001,103.09389190000002,103.09389190000002,,009,P021,2025_May_08_1246,ConditionRich,2021.2.3,59.93457541752222,
72.75,73.0,41,0.0,Stimuli/Blank.png,0,0,0.0,0,138,138,138,,,,,,,,,,,,,72.76377540000067,0.013775400000668014,2,103.84455870000056,103.84455870000056,103.84455870000056,103.84455870000056,103.84455870000056,103.84455870000056,103.84455870000056,103.84455870000056,103.84455870000056,103.84455870000056,0.0659630999998626,009,P021,2025_May_08_1246,ConditionRich,2021.2.3,59.93457541752222,
73.0,73.75,39,0.75,Stimuli/P009/things_tiara_05s.jpg,0,0,0.0,0,139,139,139,,,,,,,,,,,,,73.01330580000104,0.013305800001035095,None,104.09477160000097,104.09477160000097,104.09477160000097,104.09477160000097,104.09477160000097,104.09477160000097,104.09477160000097,104.09477160000097,104.09477160000097,104.09477160000097,,009,P021,2025_May_08_1246,ConditionRich,2021.2.3,59.93457541752222,
73.75,74.0,41,0.0,Stimuli/Blank.png,0,0,0.0,0,140,140,140,,,,,,,,,,,,,73.76599069999975,0.01599069999974745,None,104.86212499999965,104.86212499999965,104.86212499999965,104.86212499999965,104.86212499999965,104.86212499999965,104.86212499999965,104.86212499999965,104.86212499999965,104.86212499999965,,009,P021,2025_May_08_1246,ConditionRich,2021.2.3,59.93457541752222,
74.0,74.75,39,0.75,Stimuli/P009/things_tiara_05s.jpg,0,0,0.0,0,141,141,141,,,,,,,,,,,,,74.01542540000082,0.015425400000822265,None,105.11234100000001,105.11234100000001,105.11234100000001,105.11234100000001,105.11234100000001,105.11234100000001,105.11234100000001,105.11234100000001,105.11234100000001,105.11234100000001,,009,P021,2025_May_08_1246,ConditionRich,2021.2.3,59.93457541752222,
74.75,75.0,41,0.0,Stimuli/Blank.png,0,0,0.0,0,142,142,142,,,,,,,,,,,,,74.76704280000013,0.01704280000012659,None,105.86301889999959,105.86301889999959,105.86301889999959,105.86301889999959,105.86301889999959,105.86301889999959,105.86301889999959,105.86301889999959,105.86301889999959,105.86301889999959,,009,P021,2025_May_08_1246,ConditionRich,2021.2.3,59.93457541752222,
75.0,75.75,39,0.75,Stimuli/P009/things_tiara_05s.jpg,0,0,0.0,0,143,143,143,,,,,,,,,,,,,75.01600839999992,0.016008399999918765,None,106.09654860000046,106.09654860000046,106.09654860000046,106.09654860000046,106.09654860000046,106.09654860000046,106.09654860000046,106.09654860000046,106.09654860000046,106.09654860000046,,009,P021,2025_May_08_1246,ConditionRich,2021.2.3,59.93457541752222,
75.75,76.0,41,0.0,Stimuli/Blank.png,0,0,0.0,0,144,144,144,,,,,,,,,,,,,75.74953160000041,-0.0004683999995904742,None,106.8305178999999,106.8305178999999,106.8305178999999,106.8305178999999,106.8305178999999,106.8305178999999,106.8305178999999,106.8305178999999,106.8305178999999,106.8305178999999,,009,P021,2025_May_08_1246,ConditionRich,2021.2.3,59.93457541752222,
76.0,76.75,7,0.75,Stimuli/P009/sun_apiogxmvvzfmtsmj.jpg,0,0,0.0,0,145,145,145,,,,,,,,,,,,,76.00128600000062,0.0012860000006185146,None,107.09743979999985,107.09743979999985,107.09743979999985,107.09743979999985,107.09743979999985,107.09743979999985,107.09743979999985,107.09743979999985,107.09743979999985,107.09743979999985,,009,P021,2025_May_08_1246,ConditionRich,2021.2.3,59.93457541752222,
76.75,77.0,41,0.0,Stimuli/Blank.png,0,0,0.0,0,146,146,146,,,,,,,,,,,,,76.76668969999992,0.01668969999991532,None,107.84812430000056,107.84812430000056,107.84812430000056,107.84812430000056,107.84812430000056,107.84812430000056,107.84812430000056,107.84812430000056,107.84812430000056,107.84812430000056,,009,P021,2025_May_08_1246,ConditionRich,2021.2.3,59.93457541752222,
77.0,77.75,7,0.75,Stimuli/P009/sun_apiogxmvvzfmtsmj.jpg,0,0,0.0,0,147,147,147,,,,,,,,,,,,,77.0006486000002,0.0006486000002041692,None,108.09827560000122,108.09827560000122,108.09827560000122,108.09827560000122,108.09827560000122,108.09827560000122,108.09827560000122,108.09827560000122,108.09827560000122,108.09827560000122,,009,P021,2025_May_08_1246,ConditionRich,2021.2.3,59.93457541752222,
77.75,78.0,41,0.0,Stimuli/Blank.png,0,0,0.0,0,148,148,148,,,,,,,,,,,,,77.76770949999991,0.017709499999909895,None,108.84897380000075,108.84897380000075,108.84897380000075,108.84897380000075,108.84897380000075,108.84897380000075,108.84897380000075,108.84897380000075,108.84897380000075,108.84897380000075,,009,P021,2025_May_08_1246,ConditionRich,2021.2.3,59.93457541752222,
78.0,78.75,7,0.75,Stimuli/P009/sun_apiogxmvvzfmtsmj.jpg,0,0,0.0,0,149,149,149,,,,,,,,,,,,,78.00176310000097,0.0017631000009714626,None,109.09921349999968,109.09921349999968,109.09921349999968,109.09921349999968,109.09921349999968,109.09921349999968,109.09921349999968,109.09921349999968,109.09921349999968,109.09921349999968,,009,P021,2025_May_08_1246,ConditionRich,2021.2.3,59.93457541752222,
78.75,79.0,41,0.0,Stimuli/Blank.png,0,0,0.0,0,150,150,150,,,,,,,,,,,,,78.7689803000012,0.018980300001203432,None,109.84987150000052,109.84987150000052,109.84987150000052,109.84987150000052,109.84987150000052,109.84987150000052,109.84987150000052,109.84987150000052,109.84987150000052,109.84987150000052,,009,P021,2025_May_08_1246,ConditionRich,2021.2.3,59.93457541752222,
79.0,79.75,7,0.75,Stimuli/P009/sun_apiogxmvvzfmtsmj.jpg,0,0,0.0,0,151,151,151,,,,,,,,,,,,,79.00174979999974,0.001749799999743118,None,110.08340070000122,110.08340070000122,110.08340070000122,110.08340070000122,110.08340070000122,110.08340070000122,110.08340070000122,110.08340070000122,110.08340070000122,110.08340070000122,,009,P021,2025_May_08_1246,ConditionRich,2021.2.3,59.93457541752222,
79.75,80.0,41,0.0,Stimuli/Blank.png,0,0,0.0,0,152,152,152,,,,,,,,,,,,,79.75265179999951,0.00265179999951215,None,110.83406670000113,110.83406670000113,110.83406670000113,110.83406670000113,110.83406670000113,110.83406670000113,110.83406670000113,110.83406670000113,110.83406670000113,110.83406670000113,,009,P021,2025_May_08_1246,ConditionRich,2021.2.3,59.93457541752222,
80.0,80.75,40,0.75,Stimuli/P009/things_woman_05s.jpg,0,0,0.0,0,153,153,153,,,,,,,,,,,,,80.00269140000091,0.002691400000912836,None,111.0842833000006,111.0842833000006,111.0842833000006,111.0842833000006,111.0842833000006,111.0842833000006,111.0842833000006,111.0842833000006,111.0842833000006,111.0842833000006,,009,P021,2025_May_08_1246,ConditionRich,2021.2.3,59.93457541752222,
80.75,81.0,41,0.0,Stimuli/Blank.png,0,0,0.0,0,154,154,154,,,,,,,,,,,,,80.7532738000009,0.0032738000008976087,None,111.83494410000094,111.83494410000094,111.83494410000094,111.83494410000094,111.83494410000094,111.83494410000094,111.83494410000094,111.83494410000094,111.83494410000094,111.83494410000094,,009,P021,2025_May_08_1246,ConditionRich,2021.2.3,59.93457541752222,
81.0,81.75,40,0.75,Stimuli/P009/things_woman_05s.jpg,0,0,0.0,0,155,155,155,,,,,,,,,,,,,81.00600909999957,0.006009099999573664,None,112.10185600000113,112.10185600000113,112.10185600000113,112.10185600000113,112.10185600000113,112.10185600000113,112.10185600000113,112.10185600000113,112.10185600000113,112.10185600000113,,009,P021,2025_May_08_1246,ConditionRich,2021.2.3,59.93457541752222,
81.75,82.0,41,0.0,Stimuli/Blank.png,0,0,0.0,0,156,156,156,,,,,,,,,,,,,81.77201570000034,0.022015700000338256,None,112.8691959000007,112.8691959000007,112.8691959000007,112.8691959000007,112.8691959000007,112.8691959000007,112.8691959000007,112.8691959000007,112.8691959000007,112.8691959000007,,009,P021,2025_May_08_1246,ConditionRich,2021.2.3,59.93457541752222,
82.0,82.75,40,0.75,Stimuli/P009/things_woman_05s.jpg,0,0,0.0,0,157,157,157,,,,,,,,,,,,,82.02199160000055,0.021991600000546896,None,113.10273330000018,113.10273330000018,113.10273330000018,113.10273330000018,113.10273330000018,113.10273330000018,113.10273330000018,113.10273330000018,113.10273330000018,113.10273330000018,,009,P021,2025_May_08_1246,ConditionRich,2021.2.3,59.93457541752222,
82.75,83.0,41,0.0,Stimuli/Blank.png,0,0,0.0,0,158,158,158,,,,,,,,,,,,,82.75504870000077,0.005048700000770623,None,113.83672670000124,113.83672670000124,113.83672670000124,113.83672670000124,113.83672670000124,113.83672670000124,113.83672670000124,113.83672670000124,113.83672670000124,113.83672670000124,,009,P021,2025_May_08_1246,ConditionRich,2021.2.3,59.93457541752222,
83.0,83.75,40,0.75,Stimuli/P009/things_woman_05s.jpg,0,0,0.0,0,159,159,159,,,,,,,,,,,,,83.0052594000008,0.005259400000795722,None,114.08693690000109,114.08693690000109,114.08693690000109,114.08693690000109,114.08693690000109,114.08693690000109,114.08693690000109,114.08693690000109,114.08693690000109,114.08693690000109,,009,P021,2025_May_08_1246,ConditionRich,2021.2.3,59.93457541752222,
83.75,84.0,41,0.0,Stimuli/Blank.png,0,0,0.0,0,160,160,160,,,,,,,,,,,,,83.7566824000005,0.006682400000499911,None,114.83761050000066,114.83761050000066,114.83761050000066,114.83761050000066,114.83761050000066,114.83761050000066,114.83761050000066,114.83761050000066,114.83761050000066,114.83761050000066,,009,P021,2025_May_08_1246,ConditionRich,2021.2.3,59.93457541752222,
84.0,100.0,0,0.0,Stimuli/Blank.png,1,8,8.75,0,161,161,161,,,,,,,,,,,,,84.00630459999957,0.0063045999995665625,2,115.08782580000116,115.08782580000116,115.08782580000116,115.08782580000116,115.08782580000116,115.08782580000116,123.07820999999967,123.82887590000064,115.08782580000116,115.08782580000116,8.639801299999817,009,P021,2025_May_08_1246,ConditionRich,2021.2.3,59.93457541752222,
100.0,100.75,6,0.75,Stimuli/P009/sun_amkrwcyvinmsylsz.jpg,0,0,0.0,0,162,162,162,,,,,,,,,,,,,100.00443660000019,0.004436600000190083,None,131.1019722000001,131.1019722000001,131.1019722000001,131.1019722000001,131.1019722000001,131.1019722000001,131.1019722000001,131.1019722000001,131.1019722000001,131.1019722000001,,009,P021,2025_May_08_1246,ConditionRich,2021.2.3,59.93457541752222,
100.75,101.0,41,0.0,Stimuli/Blank.png,0,0,0.0,0,163,163,163,,,,,,,,,,,,,100.77371490000041,0.023714900000413763,None,131.86933119999958,131.86933119999958,131.86933119999958,131.86933119999958,131.86933119999958,131.86933119999958,131.86933119999958,131.86933119999958,131.86933119999958,131.86933119999958,,009,P021,2025_May_08_1246,ConditionRich,2021.2.3,59.93457541752222,
101.0,101.75,6,0.75,Stimuli/P009/sun_amkrwcyvinmsylsz.jpg,0,0,0.0,0,164,164,164,,,,,,,,,,,,,101.0212446000005,0.021244600000500213,None,132.10287510000126,132.10287510000126,132.10287510000126,132.10287510000126,132.10287510000126,132.10287510000126,132.10287510000126,132.10287510000126,132.10287510000126,132.10287510000126,,009,P021,2025_May_08_1246,ConditionRich,2021.2.3,59.93457541752222,
101.75,102.0,41,0.0,Stimuli/Blank.png,0,0,0.0,0,165,165,165,,,,,,,,,,,,,101.7566693000008,0.006669300000794465,None,132.83684680000079,132.83684680000079,132.83684680000079,132.83684680000079,132.83684680000079,132.83684680000079,132.83684680000079,132.83684680000079,132.83684680000079,132.83684680000079,,009,P021,2025_May_08_1246,ConditionRich,2021.2.3,59.93457541752222,
102.0,102.75,6,0.75,Stimuli/P009/sun_amkrwcyvinmsylsz.jpg,0,0,0.0,0,166,166,166,,,,,,,,,,,,,102.00545340000099,0.00545340000098804,None,133.0870648,133.0870648,133.0870648,133.0870648,133.0870648,133.0870648,133.0870648,133.0870648,133.0870648,133.0870648,,009,P021,2025_May_08_1246,ConditionRich,2021.2.3,59.93457541752222,
102.75,103.0,41,0.0,Stimuli/Blank.png,0,0,0.0,0,167,167,167,,,,,,,,,,,,,102.75689989999955,0.006899899999552872,None,133.83773400000064,133.83773400000064,133.83773400000064,133.83773400000064,133.83773400000064,133.83773400000064,133.83773400000064,133.83773400000064,133.83773400000064,133.83773400000064,,009,P021,2025_May_08_1246,ConditionRich,2021.2.3,59.93457541752222,
103.0,103.75,6,0.75,Stimuli/P009/sun_amkrwcyvinmsylsz.jpg,0,0,0.0,0,168,168,168,,,,,,,,,,,,,103.00635490000059,0.006354900000587804,None,134.08795210000062,134.08795210000062,134.08795210000062,134.08795210000062,134.08795210000062,134.08795210000062,134.08795210000062,134.08795210000062,134.08795210000062,134.08795210000062,,009,P021,2025_May_08_1246,ConditionRich,2021.2.3,59.93457541752222,
103.75,104.0,41,0.0,Stimuli/Blank.png,0,0,0.0,0,169,169,169,,,,,,,,,,,,,103.75762329999998,0.007623299999977462,None,134.83862620000036,134.83862620000036,134.83862620000036,134.83862620000036,134.83862620000036,134.83862620000036,134.83862620000036,134.83862620000036,134.83862620000036,134.83862620000036,,009,P021,2025_May_08_1246,ConditionRich,2021.2.3,59.93457541752222,
104.0,104.75,9,0.75,Stimuli/P009/sun_bdjkvwqqqycuixtc.jpg,1,0,0.75,0,170,170,170,,,,,,,,,,,,,104.00721440000052,0.007214400000520982,2,135.08884100000068,135.08884100000068,135.08884100000068,135.08884100000068,135.08884100000068,135.08884100000068,135.08884100000068,135.82295650000015,135.08884100000068,135.08884100000068,0.5007747999989078,009,P021,2025_May_08_1246,ConditionRich,2021.2.3,59.93457541752222,
104.75,105.0,41,0.0,Stimuli/Blank.png,0,0,0.0,0,171,171,171,,,,,,,,,,,,,104.75803300000007,0.008033000000068569,None,135.8396255000007,135.8396255000007,135.8396255000007,135.8396255000007,135.8396255000007,135.8396255000007,135.8396255000007,135.8396255000007,135.8396255000007,135.8396255000007,,009,P021,2025_May_08_1246,ConditionRich,2021.2.3,59.93457541752222,
105.0,105.75,9,0.75,Stimuli/P009/sun_bdjkvwqqqycuixtc.jpg,0,0,0.0,0,172,172,172,,,,,,,,,,,,,105.01098170000114,0.010981700001138961,None,136.10641329999999,136.10641329999999,136.10641329999999,136.10641329999999,136.10641329999999,136.10641329999999,136.10641329999999,136.10641329999999,136.10641329999999,136.10641329999999,,009,P021,2025_May_08_1246,ConditionRich,2021.2.3,59.93457541752222,
105.75,106.0,41,0.0,Stimuli/Blank.png,0,0,0.0,0,173,173,173,,,,,,,,,,,,,105.77664680000089,0.026646800000889925,None,136.87374459999955,136.87374459999955,136.87374459999955,136.87374459999955,136.87374459999955,136.87374459999955,136.87374459999955,136.87374459999955,136.87374459999955,136.87374459999955,,009,P021,2025_May_08_1246,ConditionRich,2021.2.3,59.93457541752222,
106.0,106.75,9,0.75,Stimuli/P009/sun_bdjkvwqqqycuixtc.jpg,0,0,0.0,0,174,174,174,,,,,,,,,,,,,106.02751650000027,0.02751650000027439,2,137.1239655999998,137.1239655999998,137.1239655999998,137.1239655999998,137.1239655999998,137.1239655999998,137.1239655999998,137.1239655999998,137.1239655999998,137.1239655999998,0.2856203999999707,009,P021,2025_May_08_1246,ConditionRich,2021.2.3,59.93457541752222,
106.75,107.0,41,0.0,Stimuli/Blank.png,0,0,0.0,0,175,175,175,,,,,,,,,,,,,106.77708209999946,0.027082099999461207,None,137.85793850000118,137.85793850000118,137.85793850000118,137.85793850000118,137.85793850000118,137.85793850000118,137.85793850000118,137.85793850000118,137.85793850000118,137.85793850000118,,009,P021,2025_May_08_1246,ConditionRich,2021.2.3,59.93457541752222,
107.0,107.75,9,0.75,Stimuli/P009/sun_bdjkvwqqqycuixtc.jpg,0,0,0.0,0,176,176,176,,,,,,,,,,,,,107.0119709999999,0.011970999999903142,None,138.10816820000036,138.10816820000036,138.10816820000036,138.10816820000036,138.10816820000036,138.10816820000036,138.10816820000036,138.10816820000036,138.10816820000036,138.10816820000036,,009,P021,2025_May_08_1246,ConditionRich,2021.2.3,59.93457541752222,
107.75,108.0,41,0.0,Stimuli/Blank.png,0,0,0.0,0,177,177,177,,,,,,,,,,,,,107.77782990000014,0.027829900000142516,None,138.85883579999972,138.85883579999972,138.85883579999972,138.85883579999972,138.85883579999972,138.85883579999972,138.85883579999972,138.85883579999972,138.85883579999972,138.85883579999972,,009,P021,2025_May_08_1246,ConditionRich,2021.2.3,59.93457541752222,
108.0,108.75,33,0.75,Stimuli/P009/things_lizard_05n.jpg,0,0,0.0,0,178,178,178,,,,,,,,,,,,,108.01292740000099,0.01292740000099002,None,139.10905260000072,139.10905260000072,139.10905260000072,139.10905260000072,139.10905260000072,139.10905260000072,139.10905260000072,139.10905260000072,139.10905260000072,139.10905260000072,,009,P021,2025_May_08_1246,ConditionRich,2021.2.3,59.93457541752222,
108.75,109.0,41,0.0,Stimuli/Blank.png,0,0,0.0,0,179,179,179,,,,,,,,,,,,,108.77820539999993,0.028205399999933434,None,139.85971360000076,139.85971360000076,139.85971360000076,139.85971360000076,139.85971360000076,139.85971360000076,139.85971360000076,139.85971360000076,139.85971360000076,139.85971360000076,,009,P021,2025_May_08_1246,ConditionRich,2021.2.3,59.93457541752222,
109.0,109.75,33,0.75,Stimuli/P009/things_lizard_05n.jpg,0,0,0.0,0,180,180,180,,,,,,,,,,,,,109.01161450000109,0.011614500001087436,None,140.09326780000083,140.09326780000083,140.09326780000083,140.09326780000083,140.09326780000083,140.09326780000083,140.09326780000083,140.09326780000083,140.09326780000083,140.09326780000083,,009,P021,2025_May_08_1246,ConditionRich,2021.2.3,59.93457541752222,
109.75,110.0,41,0.0,Stimuli/Blank.png,0,0,0.0,0,181,181,181,,,,,,,,,,,,,109.76308330000029,0.013083300000289455,None,140.84391810000125,140.84391810000125,140.84391810000125,140.84391810000125,140.84391810000125,140.84391810000125,140.84391810000125,140.84391810000125,140.84391810000125,140.84391810000125,,009,P021,2025_May_08_1246,ConditionRich,2021.2.3,59.93457541752222,
110.0,110.75,33,0.75,Stimuli/P009/things_lizard_05n.jpg,0,0,0.0,0,182,182,182,,,,,,,,,,,,,110.01354910000009,0.01354910000009113,None,141.11089230000107,141.11089230000107,141.11089230000107,141.11089230000107,141.11089230000107,141.11089230000107,141.11089230000107,141.11089230000107,141.11089230000107,141.11089230000107,,009,P021,2025_May_08_1246,ConditionRich,2021.2.3,59.93457541752222,
110.75,111.0,41,0.0,Stimuli/Blank.png,0,0,0.0,0,183,183,183,,,,,,,,,,,,,110.78055440000026,0.030554400000255555,None,141.86149409999962,141.86149409999962,141.86149409999962,141.86149409999962,141.86149409999962,141.86149409999962,141.86149409999962,141.86149409999962,141.86149409999962,141.86149409999962,,009,P021,2025_May_08_1246,ConditionRich,2021.2.3,59.93457541752222,
111.0,111.75,33,0.75,Stimuli/P009/things_lizard_05n.jpg,0,0,0.0,0,184,184,184,,,,,,,,,,,,,111.01576019999993,0.0157601999999315,None,142.11172559999977,142.11172559999977,142.11172559999977,142.11172559999977,142.11172559999977,142.11172559999977,142.11172559999977,142.11172559999977,142.11172559999977,142.11172559999977,,009,P021,2025_May_08_1246,ConditionRich,2021.2.3,59.93457541752222,
111.75,112.0,41,0.0,Stimuli/Blank.png,0,0,0.0,0,185,185,185,,,,,,,,,,,,,111.76679839999997,0.01679839999997057,None,142.86238810000032,142.86238810000032,142.86238810000032,142.86238810000032,142.86238810000032,142.86238810000032,142.86238810000032,142.86238810000032,142.86238810000032,142.86238810000032,,009,P021,2025_May_08_1246,ConditionRich,2021.2.3,59.93457541752222,
112.0,112.75,13,0.75,Stimuli/P009/sun_bjimvgwadfodioes.jpg,0,0,0.0,0,186,186,186,,,,,,,,,,,,,112.01515280000058,0.015152800000578281,None,143.0959006000012,143.0959006000012,143.0959006000012,143.0959006000012,143.0959006000012,143.0959006000012,143.0959006000012,143.0959006000012,143.0959006000012,143.0959006000012,,009,P021,2025_May_08_1246,ConditionRich,2021.2.3,59.93457541752222,
112.75,113.0,41,0.0,Stimuli/Blank.png,0,0,0.0,0,187,187,187,,,,,,,,,,,,,112.74926589999995,-0.0007341000000451459,None,143.8299063000013,143.8299063000013,143.8299063000013,143.8299063000013,143.8299063000013,143.8299063000013,143.8299063000013,143.8299063000013,143.8299063000013,143.8299063000013,,009,P021,2025_May_08_1246,ConditionRich,2021.2.3,59.93457541752222,
113.0,113.75,13,0.75,Stimuli/P009/sun_bjimvgwadfodioes.jpg,0,0,0.0,0,188,188,188,,,,,,,,,,,,,113.00072350000119,0.0007235000011860393,None,144.0968001000001,144.0968001000001,144.0968001000001,144.0968001000001,144.0968001000001,144.0968001000001,144.0968001000001,144.0968001000001,144.0968001000001,144.0968001000001,,009,P021,2025_May_08_1246,ConditionRich,2021.2.3,59.93457541752222,
113.75,114.0,41,0.0,Stimuli/Blank.png,0,0,0.0,0,189,189,189,,,,,,,,,,,,,113.7670261000003,0.01702610000029381,None,144.8641518000004,144.8641518000004,144.8641518000004,144.8641518000004,144.8641518000004,144.8641518000004,144.8641518000004,144.8641518000004,144.8641518000004,144.8641518000004,,009,P021,2025_May_08_1246,ConditionRich,2021.2.3,59.93457541752222,
114.0,114.75,13,0.75,Stimuli/P009/sun_bjimvgwadfodioes.jpg,0,0,0.0,0,190,190,190,,,,,,,,,,,,,114.01607540000077,0.016075400000772788,None,145.09773250000035,145.09773250000035,145.09773250000035,145.09773250000035,145.09773250000035,145.09773250000035,145.09773250000035,145.09773250000035,145.09773250000035,145.09773250000035,,009,P021,2025_May_08_1246,ConditionRich,2021.2.3,59.93457541752222,
114.75,115.0,41,0.0,Stimuli/Blank.png,0,0,0.0,0,191,191,191,,,,,,,,,,,,,114.7500758999995,7.589999950141646e-05,None,145.8316575000008,145.8316575000008,145.8316575000008,145.8316575000008,145.8316575000008,145.8316575000008,145.8316575000008,145.8316575000008,145.8316575000008,145.8316575000008,,009,P021,2025_May_08_1246,ConditionRich,2021.2.3,59.93457541752222,
115.0,115.75,13,0.75,Stimuli/P009/sun_bjimvgwadfodioes.jpg,0,0,0.0,0,192,192,192,,,,,,,,,,,,,115.00093200000083,0.0009320000008301577,None,146.09859680000045,146.09859680000045,146.09859680000045,146.09859680000045,146.09859680000045,146.09859680000045,146.09859680000045,146.09859680000045,146.09859680000045,146.09859680000045,,009,P021,2025_May_08_1246,ConditionRich,2021.2.3,59.93457541752222,
115.75,116.0,41,0.0,Stimuli/Blank.png,0,0,0.0,0,193,193,193,,,,,,,,,,,,,115.76775930000076,0.01775930000076187,None,146.84930320000058,146.84930320000058,146.84930320000058,146.84930320000058,146.84930320000058,146.84930320000058,146.84930320000058,146.84930320000058,146.84930320000058,146.84930320000058,,009,P021,2025_May_08_1246,ConditionRich,2021.2.3,59.93457541752222,
116.0,116.75,21,0.75,Stimuli/P009/things_boy_05s.jpg,0,0,0.0,0,194,194,194,,,,,,,,,,,,,116.00111500000094,0.0011150000009365613,None,147.08276040000055,147.08276040000055,147.08276040000055,147.08276040000055,147.08276040000055,147.08276040000055,147.08276040000055,147.08276040000055,147.08276040000055,147.08276040000055,,009,P021,2025_May_08_1246,ConditionRich,2021.2.3,59.93457541752222,
116.75,117.0,41,0.0,Stimuli/Blank.png,0,0,0.0,0,195,195,195,,,,,,,,,,,,,116.7518682000009,0.0018682000008993782,None,147.83342640000046,147.83342640000046,147.83342640000046,147.83342640000046,147.83342640000046,147.83342640000046,147.83342640000046,147.83342640000046,147.83342640000046,147.83342640000046,,009,P021,2025_May_08_1246,ConditionRich,2021.2.3,59.93457541752222,
117.0,117.75,21,0.75,Stimuli/P009/things_boy_05s.jpg,0,0,0.0,0,196,196,196,,,,,,,,,,,,,117.00278299999991,0.0027829999999084976,None,148.1003313000001,148.1003313000001,148.1003313000001,148.1003313000001,148.1003313000001,148.1003313000001,148.1003313000001,148.1003313000001,148.1003313000001,148.1003313000001,,009,P021,2025_May_08_1246,ConditionRich,2021.2.3,59.93457541752222,
117.75,118.0,41,0.0,Stimuli/Blank.png,0,0,0.0,0,197,197,197,,,,,,,,,,,,,117.7696659000012,0.019665900001200498,None,148.85100570000031,148.85100570000031,148.85100570000031,148.85100570000031,148.85100570000031,148.85100570000031,148.85100570000031,148.85100570000031,148.85100570000031,148.85100570000031,,009,P021,2025_May_08_1246,ConditionRich,2021.2.3,59.93457541752222,
118.0,118.75,21,0.75,Stimuli/P009/things_boy_05s.jpg,0,0,0.0,0,198,198,198,,,,,,,,,,,,,118.00307770000109,0.003077700001085759,None,149.08453410000038,149.08453410000038,149.08453410000038,149.08453410000038,149.08453410000038,149.08453410000038,149.08453410000038,149.08453410000038,149.08453410000038,149.08453410000038,,009,P021,2025_May_08_1246,ConditionRich,2021.2.3,59.93457541752222,
118.75,119.0,41,0.0,Stimuli/Blank.png,0,0,0.0,0,199,199,199,,,,,,,,,,,,,118.7534969999997,0.0034969999996974366,None,149.8352606999997,149.8352606999997,149.8352606999997,149.8352606999997,149.8352606999997,149.8352606999997,149.8352606999997,149.8352606999997,149.8352606999997,149.8352606999997,,009,P021,2025_May_08_1246,ConditionRich,2021.2.3,59.93457541752222,
119.0,119.75,21,0.75,Stimuli/P009/things_boy_05s.jpg,0,0,0.0,0,200,200,200,,,,,,,,,,,,,119.00521780000054,0.005217800000536954,None,150.1021008000007,150.1021008000007,150.1021008000007,150.1021008000007,150.1021008000007,150.1021008000007,150.1021008000007,150.1021008000007,150.1021008000007,150.1021008000007,,009,P021,2025_May_08_1246,ConditionRich,2021.2.3,59.93457541752222,
119.75,120.0,41,0.0,Stimuli/Blank.png,0,0,0.0,0,201,201,201,,,,,,,,,,,,,119.77109530000052,0.02109530000052473,None,150.85275940000065,150.85275940000065,150.85275940000065,150.85275940000065,150.85275940000065,150.85275940000065,150.85275940000065,150.85275940000065,150.85275940000065,150.85275940000065,,009,P021,2025_May_08_1246,ConditionRich,2021.2.3,59.93457541752222,
120.0,120.75,35,0.75,Stimuli/P009/things_mushroom_05n.jpg,0,0,0.0,0,202,202,202,,,,,,,,,,,,,120.00466320000123,0.004663200001232326,None,151.08629719999954,151.08629719999954,151.08629719999954,151.08629719999954,151.08629719999954,151.08629719999954,151.08629719999954,151.08629719999954,151.08629719999954,151.08629719999954,,009,P021,2025_May_08_1246,ConditionRich,2021.2.3,59.93457541752222,
120.75,121.0,41,0.0,Stimuli/Blank.png,0,0,0.0,0,203,203,203,,,,,,,,,,,,,120.7553710000011,0.005371000001105131,None,151.83696770000097,151.83696770000097,151.83696770000097,151.83696770000097,151.83696770000097,151.83696770000097,151.83696770000097,151.83696770000097,151.83696770000097,151.83696770000097,,009,P021,2025_May_08_1246,ConditionRich,2021.2.3,59.93457541752222,
121.0,121.75,35,0.75,Stimuli/P009/things_mushroom_05n.jpg,0,0,0.0,0,204,204,204,,,,,,,,,,,,,121.00545969999985,0.0054596999998466345,None,152.08718190000036,152.08718190000036,152.08718190000036,152.08718190000036,152.08718190000036,152.08718190000036,152.08718190000036,152.08718190000036,152.08718190000036,152.08718190000036,,009,P021,2025_May_08_1246,ConditionRich,2021.2.3,59.93457541752222,
121.75,122.0,41,0.0,Stimuli/Blank.png,0,0,0.0,0,205,205,205,,,,,,,,,,,,,121.7569080000012,0.006908000001203618,None,152.837846800001,152.837846800001,152.837846800001,152.837846800001,152.837846800001,152.837846800001,152.837846800001,152.837846800001,152.837846800001,152.837846800001,,009,P021,2025_May_08_1246,ConditionRich,2021.2.3,59.93457541752222,
122.0,122.75,35,0.75,Stimuli/P009/things_mushroom_05n.jpg,0,0,0.0,0,206,206,206,,,,,,,,,,,,,122.00650359999963,0.00650359999963257,None,153.08807830000114,153.08807830000114,153.08807830000114,153.08807830000114,153.08807830000114,153.08807830000114,153.08807830000114,153.08807830000114,153.08807830000114,153.08807830000114,,009,P021,2025_May_08_1246,ConditionRich,2021.2.3,59.93457541752222,
122.75,123.0,41,0.0,Stimuli/Blank.png,0,0,0.0,0,207,207,207,,,,,,,,,,,,,122.75765700000011,0.007657000000108383,None,153.83894599999985,153.83894599999985,153.83894599999985,153.83894599999985,153.83894599999985,153.83894599999985,153.83894599999985,153.83894599999985,153.83894599999985,153.83894599999985,,009,P021,2025_May_08_1246,ConditionRich,2021.2.3,59.93457541752222,
123.0,123.75,35,0.75,Stimuli/P009/things_mushroom_05n.jpg,0,0,0.0,0,208,208,208,,,,,,,,,,,,,123.00805930000024,0.00805930000024091,None,154.10563710000133,154.10563710000133,154.10563710000133,154.10563710000133,154.10563710000133,154.10563710000133,154.10563710000133,154.10563710000133,154.10563710000133,154.10563710000133,,009,P021,2025_May_08_1246,ConditionRich,2021.2.3,59.93457541752222,
123.75,124.0,41,0.0,Stimuli/Blank.png,0,0,0.0,0,209,209,209,,,,,,,,,,,,,123.77622770000016,0.026227700000163168,None,154.87298569999984,154.87298569999984,154.87298569999984,154.87298569999984,154.87298569999984,154.87298569999984,154.87298569999984,154.87298569999984,154.87298569999984,154.87298569999984,,009,P021,2025_May_08_1246,ConditionRich,2021.2.3,59.93457541752222,
124.0,124.75,10,0.75,Stimuli/P009/sun_bdkttewvyfdarikm.jpg,0,0,0.0,0,210,210,210,,,,,,,,,,,,,124.02548449999995,0.02548449999994773,None,155.10652000000118,155.10652000000118,155.10652000000118,155.10652000000118,155.10652000000118,155.10652000000118,155.10652000000118,155.10652000000118,155.10652000000118,155.10652000000118,,009,P021,2025_May_08_1246,ConditionRich,2021.2.3,59.93457541752222,
124.75,125.0,41,0.0,Stimuli/Blank.png,0,0,0.0,0,211,211,211,,,,,,,,,,,,,124.76188739999998,0.011887399999977788,None,155.8571979999997,155.8571979999997,155.8571979999997,155.8571979999997,155.8571979999997,155.8571979999997,155.8571979999997,155.8571979999997,155.8571979999997,155.8571979999997,,009,P021,2025_May_08_1246,ConditionRich,2021.2.3,59.93457541752222,
125.0,125.75,10,0.75,Stimuli/P009/sun_bdkttewvyfdarikm.jpg,0,0,0.0,0,212,212,212,,,,,,,,,,,,,125.02576950000002,0.02576950000002398,None,156.10740690000057,156.10740690000057,156.10740690000057,156.10740690000057,156.10740690000057,156.10740690000057,156.10740690000057,156.10740690000057,156.10740690000057,156.10740690000057,,009,P021,2025_May_08_1246,ConditionRich,2021.2.3,59.93457541752222,
125.75,126.0,41,0.0,Stimuli/Blank.png,0,0,0.0,0,213,213,213,,,,,,,,,,,,,125.76070100000106,0.010701000001063221,None,156.8413954000007,156.8413954000007,156.8413954000007,156.8413954000007,156.8413954000007,156.8413954000007,156.8413954000007,156.8413954000007,156.8413954000007,156.8413954000007,,009,P021,2025_May_08_1246,ConditionRich,2021.2.3,59.93457541752222,
126.0,126.75,10,0.75,Stimuli/P009/sun_bdkttewvyfdarikm.jpg,0,0,0.0,0,214,214,214,,,,,,,,,,,,,126.01003599999967,0.01003599999967264,None,157.09160259999953,157.09160259999953,157.09160259999953,157.09160259999953,157.09160259999953,157.09160259999953,157.09160259999953,157.09160259999953,157.09160259999953,157.09160259999953,,009,P021,2025_May_08_1246,ConditionRich,2021.2.3,59.93457541752222,
126.75,127.0,41,0.0,Stimuli/Blank.png,0,0,0.0,0,215,215,215,,,,,,,,,,,,,126.76144430000022,0.01144430000022112,None,157.84227470000042,157.84227470000042,157.84227470000042,157.84227470000042,157.84227470000042,157.84227470000042,157.84227470000042,157.84227470000042,157.84227470000042,157.84227470000042,,009,P021,2025_May_08_1246,ConditionRich,2021.2.3,59.93457541752222,
127.0,127.75,10,0.75,Stimuli/P009/sun_bdkttewvyfdarikm.jpg,0,0,0.0,0,216,216,216,,,,,,,,,,,,,127.01154470000074,0.011544700000740704,None,158.09249079999972,158.09249079999972,158.09249079999972,158.09249079999972,158.09249079999972,158.09249079999972,158.09249079999972,158.09249079999972,158.09249079999972,158.09249079999972,,009,P021,2025_May_08_1246,ConditionRich,2021.2.3,59.93457541752222,
127.75,128.0,41,0.0,Stimuli/Blank.png,0,0,0.0,0,217,217,217,,,,,,,,,,,,,127.76201820000097,0.012018200000966317,None,158.8431553999999,158.8431553999999,158.8431553999999,158.8431553999999,158.8431553999999,158.8431553999999,158.8431553999999,158.8431553999999,158.8431553999999,158.8431553999999,,009,P021,2025_May_08_1246,ConditionRich,2021.2.3,59.93457541752222,
128.0,128.75,27,0.75,Stimuli/P009/things_curling_iron_05s.jpg,0,0,0.0,0,218,218,218,,,,,,,,,,,,,128.01181200000065,0.01181200000064564,None,159.09337679999953,159.09337679999953,159.09337679999953,159.09337679999953,159.09337679999953,159.09337679999953,159.09337679999953,159.09337679999953,159.09337679999953,159.09337679999953,,009,P021,2025_May_08_1246,ConditionRich,2021.2.3,59.93457541752222,
128.75,129.0,41,0.0,Stimuli/Blank.png,0,0,0.0,0,219,219,219,,,,,,,,,,,,,128.76356120000128,0.01356120000127703,None,159.84405069999957,159.84405069999957,159.84405069999957,159.84405069999957,159.84405069999957,159.84405069999957,159.84405069999957,159.84405069999957,159.84405069999957,159.84405069999957,,009,P021,2025_May_08_1246,ConditionRich,2021.2.3,59.93457541752222,
129.0,129.75,27,0.75,Stimuli/P009/things_curling_iron_05s.jpg,0,0,0.0,0,220,220,220,,,,,,,,,,,,,129.01277930000106,0.012779300001056981,None,160.1109577999996,160.1109577999996,160.1109577999996,160.1109577999996,160.1109577999996,160.1109577999996,160.1109577999996,160.1109577999996,160.1109577999996,160.1109577999996,,009,P021,2025_May_08_1246,ConditionRich,2021.2.3,59.93457541752222,
129.75,130.0,41,0.0,Stimuli/Blank.png,0,0,0.0,0,221,221,221,,,,,,,,,,,,,129.78060110000115,0.03060110000114946,None,160.8616130999999,160.8616130999999,160.8616130999999,160.8616130999999,160.8616130999999,160.8616130999999,160.8616130999999,160.8616130999999,160.8616130999999,160.8616130999999,,009,P021,2025_May_08_1246,ConditionRich,2021.2.3,59.93457541752222,
130.0,130.75,27,0.75,Stimuli/P009/things_curling_iron_05s.jpg,0,0,0.0,0,222,222,222,,,,,,,,,,,,,130.01458769999954,0.014587699999538017,None,161.0951471999997,161.0951471999997,161.0951471999997,161.0951471999997,161.0951471999997,161.0951471999997,161.0951471999997,161.0951471999997,161.0951471999997,161.0951471999997,,009,P021,2025_May_08_1246,ConditionRich,2021.2.3,59.93457541752222,
130.75,131.0,41,0.0,Stimuli/Blank.png,0,0,0.0,0,223,223,223,,,,,,,,,,,,,130.7675517000007,0.017551700000694836,None,161.86251059999995,161.86251059999995,161.86251059999995,161.86251059999995,161.86251059999995,161.86251059999995,161.86251059999995,161.86251059999995,161.86251059999995,161.86251059999995,,009,P021,2025_May_08_1246,ConditionRich,2021.2.3,59.93457541752222,
131.0,131.75,27,0.75,Stimuli/P009/things_curling_iron_05s.jpg,0,0,0.0,0,224,224,224,,,,,,,,,,,,,131.01608420000048,0.016084200000477722,None,162.1127161000004,162.1127161000004,162.1127161000004,162.1127161000004,162.1127161000004,162.1127161000004,162.1127161000004,162.1127161000004,162.1127161000004,162.1127161000004,,009,P021,2025_May_08_1246,ConditionRich,2021.2.3,59.93457541752222,
131.75,132.0,41,0.0,Stimuli/Blank.png,0,0,0.0,0,225,225,225,,,,,,,,,,,,,131.7657282,0.015728200000012293,None,162.84666950000064,162.84666950000064,162.84666950000064,162.84666950000064,162.84666950000064,162.84666950000064,162.84666950000064,162.84666950000064,162.84666950000064,162.84666950000064,,009,P021,2025_May_08_1246,ConditionRich,2021.2.3,59.93457541752222,
132.0,132.75,24,0.75,Stimuli/P009/things_cigar_05n.jpg,0,0,0.0,0,226,226,226,,,,,,,,,,,,,132.0004437000007,0.0004437000006873859,None,163.09694300000046,163.09694300000046,163.09694300000046,163.09694300000046,163.09694300000046,163.09694300000046,163.09694300000046,163.09694300000046,163.09694300000046,163.09694300000046,,009,P021,2025_May_08_1246,ConditionRich,2021.2.3,59.93457541752222,
132.75,133.0,41,0.0,Stimuli/Blank.png,0,0,0.0,0,227,227,227,,,,,,,,,,,,,132.76721370000087,0.017213700000866083,None,163.8475613999999,163.8475613999999,163.8475613999999,163.8475613999999,163.8475613999999,163.8475613999999,163.8475613999999,163.8475613999999,163.8475613999999,163.8475613999999,,009,P021,2025_May_08_1246,ConditionRich,2021.2.3,59.93457541752222,
133.0,133.75,24,0.75,Stimuli/P009/things_cigar_05n.jpg,0,0,0.0,0,228,228,228,,,,,,,,,,,,,133.00078209999992,0.0007820999999239575,None,164.09783080000125,164.09783080000125,164.09783080000125,164.09783080000125,164.09783080000125,164.09783080000125,164.09783080000125,164.09783080000125,164.09783080000125,164.09783080000125,,009,P021,2025_May_08_1246,ConditionRich,2021.2.3,59.93457541752222,
133.75,134.0,41,0.0,Stimuli/Blank.png,0,0,0.0,0,229,229,229,,,,,,,,,,,,,133.76702810000097,0.01702810000097088,None,164.84845889999997,164.84845889999997,164.84845889999997,164.84845889999997,164.84845889999997,164.84845889999997,164.84845889999997,164.84845889999997,164.84845889999997,164.84845889999997,,009,P021,2025_May_08_1246,ConditionRich,2021.2.3,59.93457541752222,
134.0,134.75,24,0.75,Stimuli/P009/things_cigar_05n.jpg,0,0,0.0,0,230,230,230,,,,,,,,,,,,,134.00097579999965,0.000975799999650917,None,165.08200490000127,165.08200490000127,165.08200490000127,165.08200490000127,165.08200490000127,165.08200490000127,165.08200490000127,165.08200490000127,165.08200490000127,165.08200490000127,,009,P021,2025_May_08_1246,ConditionRich,2021.2.3,59.93457541752222,
134.75,135.0,41,0.0,Stimuli/Blank.png,0,0,0.0,0,231,231,231,,,,,,,,,,,,,134.75134210000033,0.0013421000003290828,None,165.83267110000088,165.83267110000088,165.83267110000088,165.83267110000088,165.83267110000088,165.83267110000088,165.83267110000088,165.83267110000088,165.83267110000088,165.83267110000088,,009,P021,2025_May_08_1246,ConditionRich,2021.2.3,59.93457541752222,
135.0,135.75,24,0.75,Stimuli/P009/things_cigar_05n.jpg,0,0,0.0,0,232,232,232,,,,,,,,,,,,,135.00120900000002,0.001209000000017113,None,166.08289130000048,166.08289130000048,166.08289130000048,166.08289130000048,166.08289130000048,166.08289130000048,166.08289130000048,166.08289130000048,166.08289130000048,166.08289130000048,,009,P021,2025_May_08_1246,ConditionRich,2021.2.3,59.93457541752222,
135.75,136.0,41,0.0,Stimuli/Blank.png,0,0,0.0,0,233,233,233,,,,,,,,,,,,,135.75205350000033,0.0020535000003292225,None,166.83354690000124,166.83354690000124,166.83354690000124,166.83354690000124,166.83354690000124,166.83354690000124,166.83354690000124,166.83354690000124,166.83354690000124,166.83354690000124,,009,P021,2025_May_08_1246,ConditionRich,2021.2.3,59.93457541752222,
136.0,136.75,3,0.75,Stimuli/P009/sun_aewgwsmvsgzleqhw.jpg,0,0,0.0,0,234,234,234,,,,,,,,,,,,,136.00296680000065,0.0029668000006495276,None,167.10046180000063,167.10046180000063,167.10046180000063,167.10046180000063,167.10046180000063,167.10046180000063,167.10046180000063,167.10046180000063,167.10046180000063,167.10046180000063,,009,P021,2025_May_08_1246,ConditionRich,2021.2.3,59.93457541752222,
136.75,137.0,41,0.0,Stimuli/Blank.png,0,0,0.0,0,235,235,235,,,,,,,,,,,,,136.7705808999999,0.020580899999913527,None,167.85112440000012,167.85112440000012,167.85112440000012,167.85112440000012,167.85112440000012,167.85112440000012,167.85112440000012,167.85112440000012,167.85112440000012,167.85112440000012,,009,P021,2025_May_08_1246,ConditionRich,2021.2.3,59.93457541752222,
137.0,137.75,3,0.75,Stimuli/P009/sun_aewgwsmvsgzleqhw.jpg,0,0,0.0,0,236,236,236,,,,,,,,,,,,,137.00321860000076,0.003218600000764127,None,168.08465590000014,168.08465590000014,168.08465590000014,168.08465590000014,168.08465590000014,168.08465590000014,168.08465590000014,168.08465590000014,168.08465590000014,168.08465590000014,,009,P021,2025_May_08_1246,ConditionRich,2021.2.3,59.93457541752222,
137.75,138.0,41,0.0,Stimuli/Blank.png,0,0,0.0,0,237,237,237,,,,,,,,,,,,,137.75392490000013,0.003924900000129128,None,168.8353274000001,168.8353274000001,168.8353274000001,168.8353274000001,168.8353274000001,168.8353274000001,168.8353274000001,168.8353274000001,168.8353274000001,168.8353274000001,,009,P021,2025_May_08_1246,ConditionRich,2021.2.3,59.93457541752222,
138.0,138.75,3,0.75,Stimuli/P009/sun_aewgwsmvsgzleqhw.jpg,1,0,0.75,0,238,238,238,,,,,,,,,,,,,138.00693710000087,0.006937100000868668,2,169.10225209999953,169.10225209999953,169.10225209999953,169.10225209999953,169.10225209999953,169.10225209999953,169.10225209999953,169.83620750000046,169.10225209999953,169.10225209999953,0.5122260000007373,009,P021,2025_May_08_1246,ConditionRich,2021.2.3,59.93457541752222,
138.75,139.0,41,0.0,Stimuli/Blank.png,0,0,0.0,0,239,239,239,,,,,,,,,,,,,138.77213780000056,0.02213780000056431,None,169.85288480000054,169.85288480000054,169.85288480000054,169.85288480000054,169.85288480000054,169.85288480000054,169.85288480000054,169.85288480000054,169.85288480000054,169.85288480000054,,009,P021,2025_May_08_1246,ConditionRich,2021.2.3,59.93457541752222,
139.0,139.75,3,0.75,Stimuli/P009/sun_aewgwsmvsgzleqhw.jpg,0,0,0.0,0,240,240,240,,,,,,,,,,,,,139.00611500000014,0.006115000000136206,None,170.1031374000013,170.1031374000013,170.1031374000013,170.1031374000013,170.1031374000013,170.1031374000013,170.1031374000013,170.1031374000013,170.1031374000013,170.1031374000013,,009,P021,2025_May_08_1246,ConditionRich,2021.2.3,59.93457541752222,
139.75,140.0,41,0.0,Stimuli/Blank.png,0,0,0.0,0,241,241,241,,,,,,,,,,,,,139.7733215999997,0.02332159999969008,None,170.85377870000048,170.85377870000048,170.85377870000048,170.85377870000048,170.85377870000048,170.85377870000048,170.85377870000048,170.85377870000048,170.85377870000048,170.85377870000048,,009,P021,2025_May_08_1246,ConditionRich,2021.2.3,59.93457541752222,
140.0,140.75,20,0.75,Stimuli/P009/sun_ddsiwinthvyejghq.jpg,0,0,0.0,0,242,242,242,,,,,,,,,,,,,140.00636850000046,0.006368500000462518,None,171.08731290000105,171.08731290000105,171.08731290000105,171.08731290000105,171.08731290000105,171.08731290000105,171.08731290000105,171.08731290000105,171.08731290000105,171.08731290000105,,009,P021,2025_May_08_1246,ConditionRich,2021.2.3,59.93457541752222,
140.75,141.0,41,0.0,Stimuli/Blank.png,0,0,0.0,0,243,243,243,,,,,,,,,,,,,140.75718120000056,0.007181200000559329,None,171.83875480000097,171.83875480000097,171.83875480000097,171.83875480000097,171.83875480000097,171.83875480000097,171.83875480000097,171.83875480000097,171.83875480000097,171.83875480000097,,009,P021,2025_May_08_1246,ConditionRich,2021.2.3,59.93457541752222,
141.0,141.75,20,0.75,Stimuli/P009/sun_ddsiwinthvyejghq.jpg,0,0,0.0,0,244,244,244,,,,,,,,,,,,,141.00672180000038,0.006721800000377698,None,172.0883055000013,172.0883055000013,172.0883055000013,172.0883055000013,172.0883055000013,172.0883055000013,172.0883055000013,172.0883055000013,172.0883055000013,172.0883055000013,,009,P021,2025_May_08_1246,ConditionRich,2021.2.3,59.93457541752222,
141.75,142.0,41,0.0,Stimuli/Blank.png,0,0,0.0,0,245,245,245,,,,,,,,,,,,,141.75776489999953,0.007764899999529007,None,172.83888430000115,172.83888430000115,172.83888430000115,172.83888430000115,172.83888430000115,172.83888430000115,172.83888430000115,172.83888430000115,172.83888430000115,172.83888430000115,,009,P021,2025_May_08_1246,ConditionRich,2021.2.3,59.93457541752222,
142.0,142.75,20,0.75,Stimuli/P009/sun_ddsiwinthvyejghq.jpg,0,0,0.0,0,246,246,246,,,,,,,,,,,,,142.00816010000017,0.008160100000168313,None,173.08907460000046,173.08907460000046,173.08907460000046,173.08907460000046,173.08907460000046,173.08907460000046,173.08907460000046,173.08907460000046,173.08907460000046,173.08907460000046,,009,P021,2025_May_08_1246,ConditionRich,2021.2.3,59.93457541752222,
142.75,143.0,41,0.0,Stimuli/Blank.png,0,0,0.0,0,247,247,247,,,,,,,,,,,,,142.76057539999965,0.01057539999965229,None,173.85645160000058,173.85645160000058,173.85645160000058,173.85645160000058,173.85645160000058,173.85645160000058,173.85645160000058,173.85645160000058,173.85645160000058,173.85645160000058,,009,P021,2025_May_08_1246,ConditionRich,2021.2.3,59.93457541752222,
143.0,143.75,20,0.75,Stimuli/P009/sun_ddsiwinthvyejghq.jpg,0,0,0.0,0,248,248,248,,,,,,,,,,,,,143.0249588000006,0.024958800000604242,None,174.10663990000103,174.10663990000103,174.10663990000103,174.10663990000103,174.10663990000103,174.10663990000103,174.10663990000103,174.10663990000103,174.10663990000103,174.10663990000103,,009,P021,2025_May_08_1246,ConditionRich,2021.2.3,59.93457541752222,
143.75,144.0,41,0.0,Stimuli/Blank.png,0,0,0.0,0,249,249,249,,,,,,,,,,,,,143.7621233000009,0.012123300000894233,None,174.85733980000077,174.85733980000077,174.85733980000077,174.85733980000077,174.85733980000077,174.85733980000077,174.85733980000077,174.85733980000077,174.85733980000077,174.85733980000077,,009,P021,2025_May_08_1246,ConditionRich,2021.2.3,59.93457541752222,
144.0,144.75,38,0.75,Stimuli/P009/things_roadsweeper_05s.jpg,1,0,0.75,0,250,250,250,,,,,,,,,,,,,144.02639740000086,0.026397400000860216,2,175.10752460000003,175.10752460000003,175.10752460000003,175.10752460000003,175.10752460000003,175.10752460000003,175.10752460000003,None,175.10752460000003,175.10752460000003,0.5542730000015581,009,P021,2025_May_08_1246,ConditionRich,2021.2.3,59.93457541752222,
144.75,145.0,41,0.0,Stimuli/Blank.png,0,0,0.0,0,251,251,251,,,,,,,,,,,,,144.76145259999976,0.011452599999756785,None,175.84151639999982,175.84151639999982,175.84151639999982,175.84151639999982,175.84151639999982,175.84151639999982,175.84151639999982,175.84151639999982,175.84151639999982,175.84151639999982,,009,P021,2025_May_08_1246,ConditionRich,2021.2.3,59.93457541752222,
145.0,145.75,38,0.75,Stimuli/P009/things_roadsweeper_05s.jpg,0,0,0.0,0,252,252,252,,,,,,,,,,,,,145.01016720000007,0.010167200000068988,None,176.09174510000048,176.09174510000048,176.09174510000048,176.09174510000048,176.09174510000048,176.09174510000048,176.09174510000048,176.09174510000048,176.09174510000048,176.09174510000048,,009,P021,2025_May_08_1246,ConditionRich,2021.2.3,59.93457541752222,
145.75,146.0,41,0.0,Stimuli/Blank.png,0,0,0.0,0,253,253,253,,,,,,,,,,,,,145.7614381000003,0.011438100000304985,None,176.84240520000094,176.84240520000094,176.84240520000094,176.84240520000094,176.84240520000094,176.84240520000094,176.84240520000094,176.84240520000094,176.84240520000094,176.84240520000094,,009,P021,2025_May_08_1246,ConditionRich,2021.2.3,59.93457541752222,
146.0,146.75,38,0.75,Stimuli/P009/things_roadsweeper_05s.jpg,0,0,0.0,0,254,254,254,,,,,,,,,,,,,146.0109752999997,0.010975299999699928,None,177.09261400000105,177.09261400000105,177.09261400000105,177.09261400000105,177.09261400000105,177.09261400000105,177.09261400000105,177.09261400000105,177.09261400000105,177.09261400000105,,009,P021,2025_May_08_1246,ConditionRich,2021.2.3,59.93457541752222,
146.75,147.0,41,0.0,Stimuli/Blank.png,0,0,0.0,0,255,255,255,,,,,,,,,,,,,146.76161669999965,0.011616699999649427,None,177.8432756000002,177.8432756000002,177.8432756000002,177.8432756000002,177.8432756000002,177.8432756000002,177.8432756000002,177.8432756000002,177.8432756000002,177.8432756000002,,009,P021,2025_May_08_1246,ConditionRich,2021.2.3,59.93457541752222,
147.0,147.75,38,0.75,Stimuli/P009/things_roadsweeper_05s.jpg,0,0,0.0,0,256,256,256,,,,,,,,,,,,,147.01201709999987,0.012017099999866332,None,178.1101510999997,178.1101510999997,178.1101510999997,178.1101510999997,178.1101510999997,178.1101510999997,178.1101510999997,178.1101510999997,178.1101510999997,178.1101510999997,,009,P021,2025_May_08_1246,ConditionRich,2021.2.3,59.93457541752222,
147.75,148.0,41,0.0,Stimuli/Blank.png,0,0,0.0,0,257,257,257,,,,,,,,,,,,,147.78139850000116,0.031398500001159846,None,178.87753450000127,178.87753450000127,178.87753450000127,178.87753450000127,178.87753450000127,178.87753450000127,178.87753450000127,178.87753450000127,178.87753450000127,178.87753450000127,,009,P021,2025_May_08_1246,ConditionRich,2021.2.3,59.93457541752222,
148.0,148.75,34,0.75,Stimuli/P009/things_man_05s.jpg,0,0,0.0,0,258,258,258,,,,,,,,,,,,,148.0314355999999,0.0314355999998952,None,179.12775730000067,179.12775730000067,179.12775730000067,179.12775730000067,179.12775730000067,179.12775730000067,179.12775730000067,179.12775730000067,179.12775730000067,179.12775730000067,,009,P021,2025_May_08_1246,ConditionRich,2021.2.3,59.93457541752222,
148.75,149.0,41,0.0,Stimuli/Blank.png,0,0,0.0,0,259,259,259,,,,,,,,,,,,,148.78235549999954,0.03235549999953946,None,179.8617456000011,179.8617456000011,179.8617456000011,179.8617456000011,179.8617456000011,179.8617456000011,179.8617456000011,179.8617456000011,179.8617456000011,179.8617456000011,,009,P021,2025_May_08_1246,ConditionRich,2021.2.3,59.93457541752222,
149.0,149.75,34,0.75,Stimuli/P009/things_man_05s.jpg,0,0,0.0,0,260,260,260,,,,,,,,,,,,,148.99782210000012,-0.0021778999998787185,None,180.09529610000027,180.09529610000027,180.09529610000027,180.09529610000027,180.09529610000027,180.09529610000027,180.09529610000027,180.09529610000027,180.09529610000027,180.09529610000027,,009,P021,2025_May_08_1246,ConditionRich,2021.2.3,59.93457541752222,
149.75,150.0,41,0.0,Stimuli/Blank.png,0,0,0.0,0,261,261,261,,,,,,,,,,,,,149.7816832999997,0.0316832999997132,None,180.86261550000017,180.86261550000017,180.86261550000017,180.86261550000017,180.86261550000017,180.86261550000017,180.86261550000017,180.86261550000017,180.86261550000017,180.86261550000017,,009,P021,2025_May_08_1246,ConditionRich,2021.2.3,59.93457541752222,
150.0,150.75,34,0.75,Stimuli/P009/things_man_05s.jpg,0,0,0.0,0,262,262,262,,,,,,,,,,,,,150.01559280000038,0.015592800000376883,None,181.11284049999995,181.11284049999995,181.11284049999995,181.11284049999995,181.11284049999995,181.11284049999995,181.11284049999995,181.11284049999995,181.11284049999995,181.11284049999995,,009,P021,2025_May_08_1246,ConditionRich,2021.2.3,59.93457541752222,
