eventStartTime,eventEndTime,eventCond,imSize,imFile,responseEvent,fixRespStart,fixRespEnd,Events.thisRepN,Events.thisTrialN,Events.thisN,Events.thisIndex,Instructions.started,Instructions.stopped,participantReadyResponse.keys,participantReadyResponse.rt,participantReadyResponse.started,participantReadyResponse.stopped,startWaitforTrigger,triggerResponse.keys,triggerResponse.rt,triggerResponse.started,triggerResponse.stopped,globalTimer,actualStartTime,startTimingDiff,participantResponse.keys,participantResponse.started,participantResponse.stopped,image.started,image.stopped,fixationOutside.started,fixationOutside.stopped,fixationResponse.started,fixationResponse.stopped,fixationInside.started,fixationInside.stopped,participantResponse.rt,session,participant,date,expName,psychopyVersion,frameRate,
,,,,,,,,,,,,20.714544299999943,None,1,3.019600399999945,20.714544299999943,None,,,,,,,,,,,,,,,,,,,,,001,P021,2025_May_08_1136,ConditionRich,2021.2.3,59.928648950561104,
,,,,,,,,,,,,,,,,,,23.73593239999991,5,23.1010268,23.74923690000014,None,,,,,,,,,,,,,,,,001,P021,2025_May_08_1136,ConditionRich,2021.2.3,59.928648950561104,
0.0,4.0,0,0.0,Stimuli/Blank.png,0,0,0.0,0,0,0,0,,,,,,,,,,,,46.85723280000002,0.017064699999991717,0.017064699999991717,None,46.883075799999915,None,46.883075799999915,None,46.883075799999915,None,46.883075799999915,46.883075799999915,46.883075799999915,None,,001,P021,2025_May_08_1136,ConditionRich,2021.2.3,59.928648950561104,
4.0,7.75,37,0.75,Stimuli/P009/things_pug_05s.jpg,0,0,0.0,0,1,1,1,,,,,,,,,,,,,4.0052003000000695,0.0052003000000695465,None,50.87665130000005,50.87665130000005,50.87665130000005,50.87665130000005,50.87665130000005,50.87665130000005,50.87665130000005,50.87665130000005,50.87665130000005,50.87665130000005,,001,P021,2025_May_08_1136,ConditionRich,2021.2.3,59.928648950561104,
7.75,8.0,41,0.0,Stimuli/Blank.png,0,0,0.0,0,2,2,2,,,,,,,,,,,,,7.757093499999883,0.007093499999882624,None,54.627369499999986,54.627369499999986,54.627369499999986,54.627369499999986,54.627369499999986,54.627369499999986,54.627369499999986,54.627369499999986,54.627369499999986,54.627369499999986,,001,P021,2025_May_08_1136,ConditionRich,2021.2.3,59.928648950561104,
8.0,11.75,33,0.75,Stimuli/P009/things_lizard_05n.jpg,0,0,0.0,0,3,3,3,,,,,,,,,,,,,8.007460199999969,0.007460199999968609,1,54.878373799999736,54.878373799999736,54.878373799999736,54.878373799999736,54.878373799999736,54.878373799999736,54.878373799999736,54.878373799999736,54.878373799999736,54.878373799999736,0.2941596999999092,001,P021,2025_May_08_1136,ConditionRich,2021.2.3,59.928648950561104,
11.75,12.0,41,0.0,Stimuli/Blank.png,0,0,0.0,0,4,4,4,,,,,,,,,,,,,11.759325200000148,0.00932520000014847,None,58.6304068999998,58.6304068999998,58.6304068999998,58.6304068999998,58.6304068999998,58.6304068999998,58.6304068999998,58.6304068999998,58.6304068999998,58.6304068999998,,001,P021,2025_May_08_1136,ConditionRich,2021.2.3,59.928648950561104,
12.0,15.75,32,0.75,Stimuli/P009/things_hawk_05s.jpg,1,2,2.75,0,5,5,5,,,,,,,,,,,,,12.00919419999991,0.00919419999991078,1,58.88056000000006,58.88056000000006,58.88056000000006,58.88056000000006,58.88056000000006,58.88056000000006,60.86585909999985,61.61669579999989,58.88056000000006,58.88056000000006,2.5907428999998956,001,P021,2025_May_08_1136,ConditionRich,2021.2.3,59.928648950561104,
15.75,16.0,41,0.0,Stimuli/Blank.png,0,0,0.0,0,6,6,6,,,,,,,,,,,,,15.762573100000282,0.012573100000281556,None,62.634500000000116,62.634500000000116,62.634500000000116,62.634500000000116,62.634500000000116,62.634500000000116,62.634500000000116,62.634500000000116,62.634500000000116,62.634500000000116,,001,P021,2025_May_08_1136,ConditionRich,2021.2.3,59.928648950561104,
16.0,19.75,5,0.75,Stimuli/P009/sun_akqvdmuauoxeafrj.jpg,0,0,0.0,0,7,7,7,,,,,,,,,,,,,16.01374020000003,0.01374020000002929,None,62.88425270000016,62.88425270000016,62.88425270000016,62.88425270000016,62.88425270000016,62.88425270000016,62.88425270000016,62.88425270000016,62.88425270000016,62.88425270000016,,001,P021,2025_May_08_1136,ConditionRich,2021.2.3,59.928648950561104,
19.75,20.0,41,0.0,Stimuli/Blank.png,0,0,0.0,0,8,8,8,,,,,,,,,,,,,19.75127730000031,0.0012773000003107882,None,66.62131809999983,66.62131809999983,66.62131809999983,66.62131809999983,66.62131809999983,66.62131809999983,66.62131809999983,66.62131809999983,66.62131809999983,66.62131809999983,,001,P021,2025_May_08_1136,ConditionRich,2021.2.3,59.928648950561104,
20.0,23.75,1,0.75,Stimuli/P009/sun_abqdlumenyzawlme.jpg,0,0,0.0,0,9,9,9,,,,,,,,,,,,,20.000078099999882,7.809999988239724e-05,None,66.87872800000014,66.87872800000014,66.87872800000014,66.87872800000014,66.87872800000014,66.87872800000014,66.87872800000014,66.87872800000014,66.87872800000014,66.87872800000014,,001,P021,2025_May_08_1136,ConditionRich,2021.2.3,59.928648950561104,
23.75,24.0,41,0.0,Stimuli/Blank.png,0,0,0.0,0,10,10,10,,,,,,,,,,,,,23.77170980000028,0.021709800000280666,None,70.64298340000005,70.64298340000005,70.64298340000005,70.64298340000005,70.64298340000005,70.64298340000005,70.64298340000005,70.64298340000005,70.64298340000005,70.64298340000005,,001,P021,2025_May_08_1136,ConditionRich,2021.2.3,59.928648950561104,
24.0,27.75,20,0.75,Stimuli/P009/sun_ddsiwinthvyejghq.jpg,0,0,0.0,0,11,11,11,,,,,,,,,,,,,24.002726100000018,0.00272610000001805,None,70.87822169999981,70.87822169999981,70.87822169999981,70.87822169999981,70.87822169999981,70.87822169999981,70.87822169999981,70.87822169999981,70.87822169999981,70.87822169999981,,001,P021,2025_May_08_1136,ConditionRich,2021.2.3,59.928648950561104,
27.75,28.0,41,0.0,Stimuli/Blank.png,0,0,0.0,0,12,12,12,,,,,,,,,,,,,27.757604099999753,0.007604099999753089,None,74.62798070000008,74.62798070000008,74.62798070000008,74.62798070000008,74.62798070000008,74.62798070000008,74.62798070000008,74.62798070000008,74.62798070000008,74.62798070000008,,001,P021,2025_May_08_1136,ConditionRich,2021.2.3,59.928648950561104,
28.0,31.75,30,0.75,Stimuli/P009/things_fire_05s.jpg,0,0,0.0,0,13,13,13,,,,,,,,,,,,,28.00714310000012,0.007143100000121194,None,74.88146049999978,74.88146049999978,74.88146049999978,74.88146049999978,74.88146049999978,74.88146049999978,74.88146049999978,74.88146049999978,74.88146049999978,74.88146049999978,,001,P021,2025_May_08_1136,ConditionRich,2021.2.3,59.928648950561104,
31.75,32.0,41,0.0,Stimuli/Blank.png,0,0,0.0,0,14,14,14,,,,,,,,,,,,,31.759365100000196,0.009365100000195525,None,78.63119430000006,78.63119430000006,78.63119430000006,78.63119430000006,78.63119430000006,78.63119430000006,78.63119430000006,78.63119430000006,78.63119430000006,78.63119430000006,,001,P021,2025_May_08_1136,ConditionRich,2021.2.3,59.928648950561104,
32.0,35.75,36,0.75,Stimuli/P009/things_pelican_05s.jpg,0,0,0.0,0,15,15,15,,,,,,,,,,,,,32.01014780000014,0.010147800000140705,None,78.88431200000014,78.88431200000014,78.88431200000014,78.88431200000014,78.88431200000014,78.88431200000014,78.88431200000014,78.88431200000014,78.88431200000014,78.88431200000014,,001,P021,2025_May_08_1136,ConditionRich,2021.2.3,59.928648950561104,
35.75,36.0,41,0.0,Stimuli/Blank.png,0,0,0.0,0,16,16,16,,,,,,,,,,,,,35.76383279999982,0.013832799999818235,None,82.63470429999961,82.63470429999961,82.63470429999961,82.63470429999961,82.63470429999961,82.63470429999961,82.63470429999961,82.63470429999961,82.63470429999961,82.63470429999961,,001,P021,2025_May_08_1136,ConditionRich,2021.2.3,59.928648950561104,
36.0,39.75,17,0.75,Stimuli/P009/sun_brkrfjpyfglmigkk.jpg,0,0,0.0,0,17,17,17,,,,,,,,,,,,,36.013760500000444,0.013760500000444154,None,82.9176666000003,82.9176666000003,82.9176666000003,82.9176666000003,82.9176666000003,82.9176666000003,82.9176666000003,82.9176666000003,82.9176666000003,82.9176666000003,,001,P021,2025_May_08_1136,ConditionRich,2021.2.3,59.928648950561104,
39.75,40.0,41,0.0,Stimuli/Blank.png,0,0,0.0,0,18,18,18,,,,,,,,,,,,,39.783355300000494,0.033355300000494026,None,86.6549100000002,86.6549100000002,86.6549100000002,86.6549100000002,86.6549100000002,86.6549100000002,86.6549100000002,86.6549100000002,86.6549100000002,86.6549100000002,,001,P021,2025_May_08_1136,ConditionRich,2021.2.3,59.928648950561104,
40.0,43.75,38,0.75,Stimuli/P009/things_roadsweeper_05s.jpg,0,0,0.0,0,19,19,19,,,,,,,,,,,,,40.00045850000015,0.0004585000001497974,None,86.87175260000004,86.87175260000004,86.87175260000004,86.87175260000004,86.87175260000004,86.87175260000004,86.87175260000004,86.87175260000004,86.87175260000004,86.87175260000004,,001,P021,2025_May_08_1136,ConditionRich,2021.2.3,59.928648950561104,
43.75,44.0,41,0.0,Stimuli/Blank.png,0,0,0.0,0,20,20,20,,,,,,,,,,,,,43.75321649999978,0.0032164999997803534,None,90.62509239999963,90.62509239999963,90.62509239999963,90.62509239999963,90.62509239999963,90.62509239999963,90.62509239999963,90.62509239999963,90.62509239999963,90.62509239999963,,001,P021,2025_May_08_1136,ConditionRich,2021.2.3,59.928648950561104,
44.0,47.75,23,0.75,Stimuli/P009/things_charger_05s.jpg,0,0,0.0,0,21,21,21,,,,,,,,,,,,,44.003647799999726,0.003647799999725976,None,90.87531920000038,90.87531920000038,90.87531920000038,90.87531920000038,90.87531920000038,90.87531920000038,90.87531920000038,90.87531920000038,90.87531920000038,90.87531920000038,,001,P021,2025_May_08_1136,ConditionRich,2021.2.3,59.928648950561104,
47.75,48.0,41,0.0,Stimuli/Blank.png,0,0,0.0,0,22,22,22,,,,,,,,,,,,,47.757282199999736,0.007282199999735894,None,94.62861090000024,94.62861090000024,94.62861090000024,94.62861090000024,94.62861090000024,94.62861090000024,94.62861090000024,94.62861090000024,94.62861090000024,94.62861090000024,,001,P021,2025_May_08_1136,ConditionRich,2021.2.3,59.928648950561104,
48.0,51.75,40,0.75,Stimuli/P009/things_woman_05s.jpg,0,0,0.0,0,23,23,23,,,,,,,,,,,,,48.00803070000029,0.00803070000029038,None,94.87882770000033,94.87882770000033,94.87882770000033,94.87882770000033,94.87882770000033,94.87882770000033,94.87882770000033,94.87882770000033,94.87882770000033,94.87882770000033,,001,P021,2025_May_08_1136,ConditionRich,2021.2.3,59.928648950561104,
51.75,52.0,41,0.0,Stimuli/Blank.png,0,0,0.0,0,24,24,24,,,,,,,,,,,,,51.7607923999999,0.010792399999900226,None,98.63215159999982,98.63215159999982,98.63215159999982,98.63215159999982,98.63215159999982,98.63215159999982,98.63215159999982,98.63215159999982,98.63215159999982,98.63215159999982,,001,P021,2025_May_08_1136,ConditionRich,2021.2.3,59.928648950561104,
52.0,55.75,35,0.75,Stimuli/P009/things_mushroom_05n.jpg,0,0,0.0,0,25,25,25,,,,,,,,,,,,,52.01065830000016,0.010658300000159215,None,98.88237000000026,98.88237000000026,98.88237000000026,98.88237000000026,98.88237000000026,98.88237000000026,98.88237000000026,98.88237000000026,98.88237000000026,98.88237000000026,,001,P021,2025_May_08_1136,ConditionRich,2021.2.3,59.928648950561104,
55.75,56.0,41,0.0,Stimuli/Blank.png,0,0,0.0,0,26,26,26,,,,,,,,,,,,,55.76487010000028,0.014870100000280218,None,102.6361122999997,102.6361122999997,102.6361122999997,102.6361122999997,102.6361122999997,102.6361122999997,102.6361122999997,102.6361122999997,102.6361122999997,102.6361122999997,,001,P021,2025_May_08_1136,ConditionRich,2021.2.3,59.928648950561104,
56.0,59.75,29,0.75,Stimuli/P009/things_fingerprint_05s.jpg,0,0,0.0,0,27,27,27,,,,,,,,,,,,,56.01532050000014,0.015320500000143511,None,102.88981049999984,102.88981049999984,102.88981049999984,102.88981049999984,102.88981049999984,102.88981049999984,102.88981049999984,102.88981049999984,102.88981049999984,102.88981049999984,,001,P021,2025_May_08_1136,ConditionRich,2021.2.3,59.928648950561104,
59.75,60.0,41,0.0,Stimuli/Blank.png,0,0,0.0,0,28,28,28,,,,,,,,,,,,,59.769850600000154,0.019850600000154373,None,106.63931599999978,106.63931599999978,106.63931599999978,106.63931599999978,106.63931599999978,106.63931599999978,106.63931599999978,106.63931599999978,106.63931599999978,106.63931599999978,,001,P021,2025_May_08_1136,ConditionRich,2021.2.3,59.928648950561104,
60.0,63.75,31,0.75,Stimuli/P009/things_girl_05s.jpg,1,2,2.75,0,29,29,29,,,,,,,,,,,,,60.00109500000008,0.0010950000000775617,1,106.8747000000003,106.8747000000003,106.8747000000003,106.8747000000003,106.8747000000003,106.8747000000003,108.87494969999989,109.6256014999999,106.8747000000003,106.8747000000003,2.5017525000002934,001,P021,2025_May_08_1136,ConditionRich,2021.2.3,59.928648950561104,
63.75,64.0,41,0.0,Stimuli/Blank.png,0,0,0.0,0,30,30,30,,,,,,,,,,,,,63.7562326000002,0.006232600000203092,None,110.62627239999983,110.62627239999983,110.62627239999983,110.62627239999983,110.62627239999983,110.62627239999983,110.62627239999983,110.62627239999983,110.62627239999983,110.62627239999983,,001,P021,2025_May_08_1136,ConditionRich,2021.2.3,59.928648950561104,
64.0,67.75,9,0.75,Stimuli/P009/sun_bdjkvwqqqycuixtc.jpg,0,0,0.0,0,31,31,31,,,,,,,,,,,,,64.00566570000001,0.0056657000000086555,None,110.87656890000017,110.87656890000017,110.87656890000017,110.87656890000017,110.87656890000017,110.87656890000017,110.87656890000017,110.87656890000017,110.87656890000017,110.87656890000017,,001,P021,2025_May_08_1136,ConditionRich,2021.2.3,59.928648950561104,
67.75,68.0,41,0.0,Stimuli/Blank.png,0,0,0.0,0,32,32,32,,,,,,,,,,,,,67.75940190000028,0.009401900000284513,None,114.63006010000026,114.63006010000026,114.63006010000026,114.63006010000026,114.63006010000026,114.63006010000026,114.63006010000026,114.63006010000026,114.63006010000026,114.63006010000026,,001,P021,2025_May_08_1136,ConditionRich,2021.2.3,59.928648950561104,
68.0,71.75,13,0.75,Stimuli/P009/sun_bjimvgwadfodioes.jpg,1,3,3.75,0,33,33,33,,,,,,,,,,,,,68.0094681000005,0.00946810000050391,1,114.88384979999955,114.88384979999955,114.88384979999955,114.88384979999955,114.88384979999955,114.88384979999955,117.88314040000023,None,114.88384979999955,114.88384979999955,3.4995891999997184,001,P021,2025_May_08_1136,ConditionRich,2021.2.3,59.928648950561104,
71.75,72.0,41,0.0,Stimuli/Blank.png,0,0,0.0,0,34,34,34,,,,,,,,,,,,,71.76302020000048,0.013020200000482873,None,118.63338469999962,118.63338469999962,118.63338469999962,118.63338469999962,118.63338469999962,118.63338469999962,118.63338469999962,118.63338469999962,118.63338469999962,118.63338469999962,,001,P021,2025_May_08_1136,ConditionRich,2021.2.3,59.928648950561104,
72.0,75.75,7,0.75,Stimuli/P009/sun_apiogxmvvzfmtsmj.jpg,0,0,0.0,0,35,35,35,,,,,,,,,,,,,72.01274150000017,0.01274150000017471,None,118.88377990000026,118.88377990000026,118.88377990000026,118.88377990000026,118.88377990000026,118.88377990000026,118.88377990000026,118.88377990000026,118.88377990000026,118.88377990000026,,001,P021,2025_May_08_1136,ConditionRich,2021.2.3,59.928648950561104,
75.75,76.0,41,0.0,Stimuli/Blank.png,0,0,0.0,0,36,36,36,,,,,,,,,,,,,75.7506785999999,0.0006785999999010528,None,122.62017899999955,122.62017899999955,122.62017899999955,122.62017899999955,122.62017899999955,122.62017899999955,122.62017899999955,122.62017899999955,122.62017899999955,122.62017899999955,,001,P021,2025_May_08_1136,ConditionRich,2021.2.3,59.928648950561104,
76.0,79.75,12,0.75,Stimuli/P009/sun_birmwgkdtrlevcaf.jpg,0,0,0.0,0,37,37,37,,,,,,,,,,,,,76.00117110000019,0.0011711000001923821,None,122.87622809999993,122.87622809999993,122.87622809999993,122.87622809999993,122.87622809999993,122.87622809999993,122.87622809999993,122.87622809999993,122.87622809999993,122.87622809999993,,001,P021,2025_May_08_1136,ConditionRich,2021.2.3,59.928648950561104,
79.75,80.0,41,0.0,Stimuli/Blank.png,0,0,0.0,0,38,38,38,,,,,,,,,,,,,79.77035469999964,0.020354699999643344,None,126.64077120000002,126.64077120000002,126.64077120000002,126.64077120000002,126.64077120000002,126.64077120000002,126.64077120000002,126.64077120000002,126.64077120000002,126.64077120000002,,001,P021,2025_May_08_1136,ConditionRich,2021.2.3,59.928648950561104,
80.0,83.75,19,0.75,Stimuli/P009/sun_bwvfnogmotsvhofs.jpg,1,3,3.75,0,39,39,39,,,,,,,,,,,,,80.00244299999986,0.0024429999998574203,1,126.87921209999968,126.87921209999968,126.87921209999968,126.87921209999968,126.87921209999968,126.87921209999968,129.86028299999998,130.61053639999955,126.87921209999968,126.87921209999968,3.5113344000001234,001,P021,2025_May_08_1136,ConditionRich,2021.2.3,59.928648950561104,
83.75,84.0,41,0.0,Stimuli/Blank.png,0,0,0.0,0,40,40,40,,,,,,,,,,,,,83.75669830000015,0.006698300000152813,None,130.6276173999995,130.6276173999995,130.6276173999995,130.6276173999995,130.6276173999995,130.6276173999995,130.6276173999995,130.6276173999995,130.6276173999995,130.6276173999995,,001,P021,2025_May_08_1136,ConditionRich,2021.2.3,59.928648950561104,
84.0,100.0,0,0.0,Stimuli/Blank.png,1,1,1.75,0,41,41,41,,,,,,,,,,,,,84.00628259999985,0.006282599999849481,1,130.87747190000027,130.87747190000027,130.87747190000027,130.87747190000027,130.87747190000027,130.87747190000027,131.8620262000004,132.61260349999975,130.87747190000027,130.87747190000027,1.6168096999999761,001,P021,2025_May_08_1136,ConditionRich,2021.2.3,59.928648950561104,
100.0,103.75,16,0.75,Stimuli/P009/sun_bqpyqljaflidcauh.jpg,0,0,0.0,0,42,42,42,,,,,,,,,,,,,100.00407880000012,0.004078800000115734,None,146.8819752999998,146.8819752999998,146.8819752999998,146.8819752999998,146.8819752999998,146.8819752999998,146.8819752999998,146.8819752999998,146.8819752999998,146.8819752999998,,001,P021,2025_May_08_1136,ConditionRich,2021.2.3,59.928648950561104,
103.75,104.0,41,0.0,Stimuli/Blank.png,0,0,0.0,0,43,43,43,,,,,,,,,,,,,103.75892160000012,0.008921600000121543,None,150.62842399999954,150.62842399999954,150.62842399999954,150.62842399999954,150.62842399999954,150.62842399999954,150.62842399999954,150.62842399999954,150.62842399999954,150.62842399999954,,001,P021,2025_May_08_1136,ConditionRich,2021.2.3,59.928648950561104,
104.0,107.75,10,0.75,Stimuli/P009/sun_bdkttewvyfdarikm.jpg,0,0,0.0,0,44,44,44,,,,,,,,,,,,,104.0081194999998,0.008119499999793334,None,150.88410509999994,150.88410509999994,150.88410509999994,150.88410509999994,150.88410509999994,150.88410509999994,150.88410509999994,150.88410509999994,150.88410509999994,150.88410509999994,,001,P021,2025_May_08_1136,ConditionRich,2021.2.3,59.928648950561104,
107.75,108.0,41,0.0,Stimuli/Blank.png,0,0,0.0,0,45,45,45,,,,,,,,,,,,,107.76128730000028,0.011287300000276446,None,154.63209910000023,154.63209910000023,154.63209910000023,154.63209910000023,154.63209910000023,154.63209910000023,154.63209910000023,154.63209910000023,154.63209910000023,154.63209910000023,,001,P021,2025_May_08_1136,ConditionRich,2021.2.3,59.928648950561104,
108.0,111.75,15,0.75,Stimuli/P009/sun_boryivbddrnarrbo.jpg,0,0,0.0,0,46,46,46,,,,,,,,,,,,,108.01153690000001,0.011536900000010064,None,154.88568699999996,154.88568699999996,154.88568699999996,154.88568699999996,154.88568699999996,154.88568699999996,154.88568699999996,154.88568699999996,154.88568699999996,154.88568699999996,,001,P021,2025_May_08_1136,ConditionRich,2021.2.3,59.928648950561104,
111.75,112.0,41,0.0,Stimuli/Blank.png,0,0,0.0,0,47,47,47,,,,,,,,,,,,,111.7646920000002,0.014692000000195549,None,158.63579070000014,158.63579070000014,158.63579070000014,158.63579070000014,158.63579070000014,158.63579070000014,158.63579070000014,158.63579070000014,158.63579070000014,158.63579070000014,,001,P021,2025_May_08_1136,ConditionRich,2021.2.3,59.928648950561104,
112.0,115.75,8,0.75,Stimuli/P009/sun_batcnoizlkeiqdtx.jpg,1,0,0.75,0,48,48,48,,,,,,,,,,,,,112.0144593,0.01445929999999862,1,158.89022310000018,158.89022310000018,158.89022310000018,158.89022310000018,158.89022310000018,158.89022310000018,158.89022310000018,159.63668700000017,158.89022310000018,158.89022310000018,0.7939857999999731,001,P021,2025_May_08_1136,ConditionRich,2021.2.3,59.928648950561104,
115.75,116.0,41,0.0,Stimuli/Blank.png,0,0,0.0,0,49,49,49,,,,,,,,,,,,,115.76920579999978,0.019205799999781448,None,162.6388880000004,162.6388880000004,162.6388880000004,162.6388880000004,162.6388880000004,162.6388880000004,162.6388880000004,162.6388880000004,162.6388880000004,162.6388880000004,,001,P021,2025_May_08_1136,ConditionRich,2021.2.3,59.928648950561104,
116.0,119.75,14,0.75,Stimuli/P009/sun_blaqxdebghixzyyw.jpg,0,0,0.0,0,50,50,50,,,,,,,,,,,,,116.00124209999967,0.0012420999996720639,None,162.8752072999996,162.8752072999996,162.8752072999996,162.8752072999996,162.8752072999996,162.8752072999996,162.8752072999996,162.8752072999996,162.8752072999996,162.8752072999996,,001,P021,2025_May_08_1136,ConditionRich,2021.2.3,59.928648950561104,
119.75,120.0,41,0.0,Stimuli/Blank.png,0,0,0.0,0,51,51,51,,,,,,,,,,,,,119.7555511000005,0.005551100000502629,None,166.6259928999998,166.6259928999998,166.6259928999998,166.6259928999998,166.6259928999998,166.6259928999998,166.6259928999998,166.6259928999998,166.6259928999998,166.6259928999998,,001,P021,2025_May_08_1136,ConditionRich,2021.2.3,59.928648950561104,
120.0,123.75,28,0.75,Stimuli/P009/things_face_05s.jpg,0,0,0.0,0,52,52,52,,,,,,,,,,,,,120.00438820000045,0.004388200000448705,None,166.8793728999999,166.8793728999999,166.8793728999999,166.8793728999999,166.8793728999999,166.8793728999999,166.8793728999999,166.8793728999999,166.8793728999999,166.8793728999999,,001,P021,2025_May_08_1136,ConditionRich,2021.2.3,59.928648950561104,
123.75,124.0,41,0.0,Stimuli/Blank.png,0,0,0.0,0,53,53,53,,,,,,,,,,,,,123.75909230000025,0.009092300000247633,None,170.62936759999957,170.62936759999957,170.62936759999957,170.62936759999957,170.62936759999957,170.62936759999957,170.62936759999957,170.62936759999957,170.62936759999957,170.62936759999957,,001,P021,2025_May_08_1136,ConditionRich,2021.2.3,59.928648950561104,
124.0,127.75,2,0.75,Stimuli/P009/sun_acvloibbxiqpiwnv.jpg,0,0,0.0,0,54,54,54,,,,,,,,,,,,,124.00902369999994,0.009023699999943346,None,170.88317579999966,170.88317579999966,170.88317579999966,170.88317579999966,170.88317579999966,170.88317579999966,170.88317579999966,170.88317579999966,170.88317579999966,170.88317579999966,,001,P021,2025_May_08_1136,ConditionRich,2021.2.3,59.928648950561104,
127.75,128.0,41,0.0,Stimuli/Blank.png,0,0,0.0,0,55,55,55,,,,,,,,,,,,,127.76250260000006,0.012502600000061648,None,174.6331984999997,174.6331984999997,174.6331984999997,174.6331984999997,174.6331984999997,174.6331984999997,174.6331984999997,174.6331984999997,174.6331984999997,174.6331984999997,,001,P021,2025_May_08_1136,ConditionRich,2021.2.3,59.928648950561104,
128.0,131.75,11,0.75,Stimuli/P009/sun_bfyvfqiimvdaxlqn.jpg,0,0,0.0,0,56,56,56,,,,,,,,,,,,,128.01246539999966,0.012465399999655347,None,174.88813779999964,174.88813779999964,174.88813779999964,174.88813779999964,174.88813779999964,174.88813779999964,174.88813779999964,174.88813779999964,174.88813779999964,174.88813779999964,,001,P021,2025_May_08_1136,ConditionRich,2021.2.3,59.928648950561104,
131.75,132.0,41,0.0,Stimuli/Blank.png,0,0,0.0,0,57,57,57,,,,,,,,,,,,,131.76593400000047,0.015934000000470405,None,178.63667470000019,178.63667470000019,178.63667470000019,178.63667470000019,178.63667470000019,178.63667470000019,178.63667470000019,178.63667470000019,178.63667470000019,178.63667470000019,,001,P021,2025_May_08_1136,ConditionRich,2021.2.3,59.928648950561104,
132.0,135.75,25,0.75,Stimuli/P009/things_clothespin_05s.jpg,0,0,0.0,0,58,58,58,,,,,,,,,,,,,132.0007639999999,0.0007639999998900748,None,178.87607089999983,178.87607089999983,178.87607089999983,178.87607089999983,178.87607089999983,178.87607089999983,178.87607089999983,178.87607089999983,178.87607089999983,178.87607089999983,,001,P021,2025_May_08_1136,ConditionRich,2021.2.3,59.928648950561104,
135.75,136.0,41,0.0,Stimuli/Blank.png,0,0,0.0,0,59,59,59,,,,,,,,,,,,,135.7687891999999,0.01878919999990103,None,182.64012470000034,182.64012470000034,182.64012470000034,182.64012470000034,182.64012470000034,182.64012470000034,182.64012470000034,182.64012470000034,182.64012470000034,182.64012470000034,,001,P021,2025_May_08_1136,ConditionRich,2021.2.3,59.928648950561104,
136.0,139.75,27,0.75,Stimuli/P009/things_curling_iron_05s.jpg,0,0,0.0,0,60,60,60,,,,,,,,,,,,,136.00171830000045,0.0017183000004479254,None,182.87575349999952,182.87575349999952,182.87575349999952,182.87575349999952,182.87575349999952,182.87575349999952,182.87575349999952,182.87575349999952,182.87575349999952,182.87575349999952,,001,P021,2025_May_08_1136,ConditionRich,2021.2.3,59.928648950561104,
139.75,140.0,41,0.0,Stimuli/Blank.png,0,0,0.0,0,61,61,61,,,,,,,,,,,,,139.75680990000046,0.006809900000462221,None,186.6272312000001,186.6272312000001,186.6272312000001,186.6272312000001,186.6272312000001,186.6272312000001,186.6272312000001,186.6272312000001,186.6272312000001,186.6272312000001,,001,P021,2025_May_08_1136,ConditionRich,2021.2.3,59.928648950561104,
140.0,143.75,39,0.75,Stimuli/P009/things_tiara_05s.jpg,0,0,0.0,0,62,62,62,,,,,,,,,,,,,140.00504520000004,0.005045200000040495,None,186.8787867000001,186.8787867000001,186.8787867000001,186.8787867000001,186.8787867000001,186.8787867000001,186.8787867000001,186.8787867000001,186.8787867000001,186.8787867000001,,001,P021,2025_May_08_1136,ConditionRich,2021.2.3,59.928648950561104,
143.75,144.0,41,0.0,Stimuli/Blank.png,0,0,0.0,0,63,63,63,,,,,,,,,,,,,143.76043470000013,0.01043470000013258,None,190.63070439999956,190.63070439999956,190.63070439999956,190.63070439999956,190.63070439999956,190.63070439999956,190.63070439999956,190.63070439999956,190.63070439999956,190.63070439999956,,001,P021,2025_May_08_1136,ConditionRich,2021.2.3,59.928648950561104,
144.0,147.75,21,0.75,Stimuli/P009/things_boy_05s.jpg,1,1,1.75,0,64,64,64,,,,,,,,,,,,,144.01000690000046,0.010006900000462338,None,190.88502510000035,190.88502510000035,190.88502510000035,190.88502510000035,190.88502510000035,190.88502510000035,191.88178419999986,192.63243330000023,190.88502510000035,190.88502510000035,,001,P021,2025_May_08_1136,ConditionRich,2021.2.3,59.928648950561104,
147.75,148.0,41,0.0,Stimuli/Blank.png,0,0,0.0,0,65,65,65,,,,,,,,,,,,,147.7624939000002,0.012493900000208669,None,194.6341497000003,194.6341497000003,194.6341497000003,194.6341497000003,194.6341497000003,194.6341497000003,194.6341497000003,194.6341497000003,194.6341497000003,194.6341497000003,,001,P021,2025_May_08_1136,ConditionRich,2021.2.3,59.928648950561104,
148.0,151.75,18,0.75,Stimuli/P009/sun_bwjdahsxcqepqqbm.jpg,1,1,1.75,0,66,66,66,,,,,,,,,,,,,148.01269170000023,0.012691700000232231,1,194.88678189999973,194.88678189999973,194.88678189999973,194.88678189999973,194.88678189999973,194.88678189999973,195.8848885999996,196.63574119999976,194.88678189999973,194.88678189999973,1.3405845999996018,001,P021,2025_May_08_1136,ConditionRich,2021.2.3,59.928648950561104,
151.75,152.0,41,0.0,Stimuli/Blank.png,0,0,0.0,0,67,67,67,,,,,,,,,,,,,151.76824439999973,0.018244399999730376,None,198.6389663,198.6389663,198.6389663,198.6389663,198.6389663,198.6389663,198.6389663,198.6389663,198.6389663,198.6389663,,001,P021,2025_May_08_1136,ConditionRich,2021.2.3,59.928648950561104,
152.0,155.75,24,0.75,Stimuli/P009/things_cigar_05n.jpg,0,0,0.0,0,68,68,68,,,,,,,,,,,,,151.99981460000026,-0.0001853999997365463,None,198.8750269000002,198.8750269000002,198.8750269000002,198.8750269000002,198.8750269000002,198.8750269000002,198.8750269000002,198.8750269000002,198.8750269000002,198.8750269000002,,001,P021,2025_May_08_1136,ConditionRich,2021.2.3,59.928648950561104,
155.75,156.0,41,0.0,Stimuli/Blank.png,0,0,0.0,0,69,69,69,,,,,,,,,,,,,155.7549438000001,0.004943800000091869,None,202.62508220000018,202.62508220000018,202.62508220000018,202.62508220000018,202.62508220000018,202.62508220000018,202.62508220000018,202.62508220000018,202.62508220000018,202.62508220000018,,001,P021,2025_May_08_1136,ConditionRich,2021.2.3,59.928648950561104,
156.0,159.75,4,0.75,Stimuli/P009/sun_afkzdukwewwzqtmr.jpg,0,0,0.0,0,70,70,70,,,,,,,,,,,,,156.00280280000015,0.002802800000154093,None,202.8785686000001,202.8785686000001,202.8785686000001,202.8785686000001,202.8785686000001,202.8785686000001,202.8785686000001,202.8785686000001,202.8785686000001,202.8785686000001,,001,P021,2025_May_08_1136,ConditionRich,2021.2.3,59.928648950561104,
159.75,160.0,41,0.0,Stimuli/Blank.png,0,0,0.0,0,71,71,71,,,,,,,,,,,,,159.75827069999968,0.008270699999684439,None,206.62965460000032,206.62965460000032,206.62965460000032,206.62965460000032,206.62965460000032,206.62965460000032,206.62965460000032,206.62965460000032,206.62965460000032,206.62965460000032,,001,P021,2025_May_08_1136,ConditionRich,2021.2.3,59.928648950561104,
160.0,163.75,22,0.75,Stimuli/P009/things_butterfly_05s.jpg,1,3,3.75,0,72,72,72,,,,,,,,,,,,,160.00669510000034,0.006695100000342791,1,206.88382269999966,206.88382269999966,206.88382269999966,206.88382269999966,206.88382269999966,206.88382269999966,209.88102150000032,None,206.88382269999966,206.88382269999966,3.4955951000001733,001,P021,2025_May_08_1136,ConditionRich,2021.2.3,59.928648950561104,
163.75,164.0,41,0.0,Stimuli/Blank.png,0,0,0.0,0,73,73,73,,,,,,,,,,,,,163.76074130000006,0.010741300000063347,None,210.63161740000032,210.63161740000032,210.63161740000032,210.63161740000032,210.63161740000032,210.63161740000032,210.63161740000032,210.63161740000032,210.63161740000032,210.63161740000032,,001,P021,2025_May_08_1136,ConditionRich,2021.2.3,59.928648950561104,
164.0,167.75,3,0.75,Stimuli/P009/sun_aewgwsmvsgzleqhw.jpg,0,0,0.0,0,74,74,74,,,,,,,,,,,,,164.01103889999968,0.011038899999675778,None,210.8854038999998,210.8854038999998,210.8854038999998,210.8854038999998,210.8854038999998,210.8854038999998,210.8854038999998,210.8854038999998,210.8854038999998,210.8854038999998,,001,P021,2025_May_08_1136,ConditionRich,2021.2.3,59.928648950561104,
167.75,168.0,41,0.0,Stimuli/Blank.png,0,0,0.0,0,75,75,75,,,,,,,,,,,,,167.76424700000052,0.014247000000523258,None,214.63508230000025,214.63508230000025,214.63508230000025,214.63508230000025,214.63508230000025,214.63508230000025,214.63508230000025,214.63508230000025,214.63508230000025,214.63508230000025,,001,P021,2025_May_08_1136,ConditionRich,2021.2.3,59.928648950561104,
168.0,171.75,26,0.75,Stimuli/P009/things_cookie_sheet_05s.jpg,0,0,0.0,0,76,76,76,,,,,,,,,,,,,168.01407429999972,0.014074299999720097,None,214.8896536000002,214.8896536000002,214.8896536000002,214.8896536000002,214.8896536000002,214.8896536000002,214.8896536000002,214.8896536000002,214.8896536000002,214.8896536000002,,001,P021,2025_May_08_1136,ConditionRich,2021.2.3,59.928648950561104,
171.75,172.0,41,0.0,Stimuli/Blank.png,0,0,0.0,0,77,77,77,,,,,,,,,,,,,171.76870350000036,0.018703500000356144,None,218.63834700000007,218.63834700000007,218.63834700000007,218.63834700000007,218.63834700000007,218.63834700000007,218.63834700000007,218.63834700000007,218.63834700000007,218.63834700000007,,001,P021,2025_May_08_1136,ConditionRich,2021.2.3,59.928648950561104,
172.0,175.75,34,0.75,Stimuli/P009/things_man_05s.jpg,0,0,0.0,0,78,78,78,,,,,,,,,,,,,172.00199459999976,0.0019945999997617037,None,218.8808670999997,218.8808670999997,218.8808670999997,218.8808670999997,218.8808670999997,218.8808670999997,218.8808670999997,218.8808670999997,218.8808670999997,218.8808670999997,,001,P021,2025_May_08_1136,ConditionRich,2021.2.3,59.928648950561104,
175.75,176.0,41,0.0,Stimuli/Blank.png,0,0,0.0,0,79,79,79,,,,,,,,,,,,,175.77103430000034,0.02103430000033768,None,222.64236580000033,222.64236580000033,222.64236580000033,222.64236580000033,222.64236580000033,222.64236580000033,222.64236580000033,222.64236580000033,222.64236580000033,222.64236580000033,,001,P021,2025_May_08_1136,ConditionRich,2021.2.3,59.928648950561104,
176.0,179.75,6,0.75,Stimuli/P009/sun_amkrwcyvinmsylsz.jpg,0,0,0.0,0,80,80,80,,,,,,,,,,,,,176.0052294000002,0.005229400000189344,None,222.8758084000001,222.8758084000001,222.8758084000001,222.8758084000001,222.8758084000001,222.8758084000001,222.8758084000001,222.8758084000001,222.8758084000001,222.8758084000001,,001,P021,2025_May_08_1136,ConditionRich,2021.2.3,59.928648950561104,
179.75,180.0,41,0.0,Stimuli/Blank.png,0,0,0.0,0,81,81,81,,,,,,,,,,,,,179.7593296,0.009329600000000937,None,226.62902659999963,226.62902659999963,226.62902659999963,226.62902659999963,226.62902659999963,226.62902659999963,226.62902659999963,226.62902659999963,226.62902659999963,226.62902659999963,,001,P021,2025_May_08_1136,ConditionRich,2021.2.3,59.928648950561104,
180.0,196.0,0,0.0,Stimuli/Blank.png,1,2,2.75,0,82,82,82,,,,,,,,,,,,,180.00898910000024,0.00898910000023534,1,226.8794158999999,226.8794158999999,226.8794158999999,226.8794158999999,226.8794158999999,226.8794158999999,228.8644875,229.61525389999952,226.8794158999999,226.8794158999999,2.3588692000002993,001,P021,2025_May_08_1136,ConditionRich,2021.2.3,59.928648950561104,
196.0,199.75,9,0.75,Stimuli/P009/sun_bdjkvwqqqycuixtc.jpg,0,0,0.0,0,83,83,83,,,,,,,,,,,,,196.00702190000038,0.00702190000038172,None,242.87656439999955,242.87656439999955,242.87656439999955,242.87656439999955,242.87656439999955,242.87656439999955,242.87656439999955,242.87656439999955,242.87656439999955,242.87656439999955,,001,P021,2025_May_08_1136,ConditionRich,2021.2.3,59.928648950561104,
199.75,200.0,41,0.0,Stimuli/Blank.png,0,0,0.0,0,84,84,84,,,,,,,,,,,,,199.75895379999974,0.00895379999974466,None,246.6302480000004,246.6302480000004,246.6302480000004,246.6302480000004,246.6302480000004,246.6302480000004,246.6302480000004,246.6302480000004,246.6302480000004,246.6302480000004,,001,P021,2025_May_08_1136,ConditionRich,2021.2.3,59.928648950561104,
200.0,203.75,19,0.75,Stimuli/P009/sun_bwvfnogmotsvhofs.jpg,1,3,3.75,0,85,85,85,,,,,,,,,,,,,200.01139829999966,0.011398299999655137,1,246.88062939999963,246.88062939999963,246.88062939999963,246.88062939999963,246.88062939999963,246.88062939999963,249.88314720000017,None,246.88062939999963,246.88062939999963,3.505946700000095,001,P021,2025_May_08_1136,ConditionRich,2021.2.3,59.928648950561104,
203.75,204.0,41,0.0,Stimuli/Blank.png,0,0,0.0,0,86,86,86,,,,,,,,,,,,,203.76290720000043,0.01290720000042711,None,250.6337566000002,250.6337566000002,250.6337566000002,250.6337566000002,250.6337566000002,250.6337566000002,250.6337566000002,250.6337566000002,250.6337566000002,250.6337566000002,,001,P021,2025_May_08_1136,ConditionRich,2021.2.3,59.928648950561104,
204.0,207.75,18,0.75,Stimuli/P009/sun_bwjdahsxcqepqqbm.jpg,0,0,0.0,0,87,87,87,,,,,,,,,,,,,204.01274849999982,0.012748499999815976,None,250.88392360000034,250.88392360000034,250.88392360000034,250.88392360000034,250.88392360000034,250.88392360000034,250.88392360000034,250.88392360000034,250.88392360000034,250.88392360000034,,001,P021,2025_May_08_1136,ConditionRich,2021.2.3,59.928648950561104,
207.75,208.0,41,0.0,Stimuli/Blank.png,0,0,0.0,0,88,88,88,,,,,,,,,,,,,207.7494373000004,-0.0005626999995911319,None,254.62052979999953,254.62052979999953,254.62052979999953,254.62052979999953,254.62052979999953,254.62052979999953,254.62052979999953,254.62052979999953,254.62052979999953,254.62052979999953,,001,P021,2025_May_08_1136,ConditionRich,2021.2.3,59.928648950561104,
208.0,211.75,23,0.75,Stimuli/P009/things_charger_05s.jpg,0,0,0.0,0,89,89,89,,,,,,,,,,,,,208.00020559999984,0.00020559999984470778,None,254.87149829999998,254.87149829999998,254.87149829999998,254.87149829999998,254.87149829999998,254.87149829999998,254.87149829999998,254.87149829999998,254.87149829999998,254.87149829999998,,001,P021,2025_May_08_1136,ConditionRich,2021.2.3,59.928648950561104,
211.75,212.0,41,0.0,Stimuli/Blank.png,0,0,0.0,0,90,90,90,,,,,,,,,,,,,211.75423249999994,0.004232499999943684,None,258.6238368000004,258.6238368000004,258.6238368000004,258.6238368000004,258.6238368000004,258.6238368000004,258.6238368000004,258.6238368000004,258.6238368000004,258.6238368000004,,001,P021,2025_May_08_1136,ConditionRich,2021.2.3,59.928648950561104,
212.0,215.75,17,0.75,Stimuli/P009/sun_brkrfjpyfglmigkk.jpg,0,0,0.0,0,91,91,91,,,,,,,,,,,,,212.00421099999994,0.004210999999941123,None,258.8911065000002,258.8911065000002,258.8911065000002,258.8911065000002,258.8911065000002,258.8911065000002,258.8911065000002,258.8911065000002,258.8911065000002,258.8911065000002,,001,P021,2025_May_08_1136,ConditionRich,2021.2.3,59.928648950561104,
215.75,216.0,41,0.0,Stimuli/Blank.png,0,0,0.0,0,92,92,92,,,,,,,,,,,,,215.77388629999996,0.023886299999958283,None,262.6444303999997,262.6444303999997,262.6444303999997,262.6444303999997,262.6444303999997,262.6444303999997,262.6444303999997,262.6444303999997,262.6444303999997,262.6444303999997,,001,P021,2025_May_08_1136,ConditionRich,2021.2.3,59.928648950561104,
216.0,219.75,38,0.75,Stimuli/P009/things_roadsweeper_05s.jpg,0,0,0.0,0,93,93,93,,,,,,,,,,,,,216.00768029999972,0.007680299999719864,None,262.8776680000001,262.8776680000001,262.8776680000001,262.8776680000001,262.8776680000001,262.8776680000001,262.8776680000001,262.8776680000001,262.8776680000001,262.8776680000001,,001,P021,2025_May_08_1136,ConditionRich,2021.2.3,59.928648950561104,
219.75,220.0,41,0.0,Stimuli/Blank.png,0,0,0.0,0,94,94,94,,,,,,,,,,,,,219.76052879999997,0.01052879999997458,None,266.63131350000003,266.63131350000003,266.63131350000003,266.63131350000003,266.63131350000003,266.63131350000003,266.63131350000003,266.63131350000003,266.63131350000003,266.63131350000003,,001,P021,2025_May_08_1136,ConditionRich,2021.2.3,59.928648950561104,
220.0,223.75,34,0.75,Stimuli/P009/things_man_05s.jpg,0,0,0.0,0,95,95,95,,,,,,,,,,,,,220.01080669999965,0.010806699999648117,None,266.8812893000004,266.8812893000004,266.8812893000004,266.8812893000004,266.8812893000004,266.8812893000004,266.8812893000004,266.8812893000004,266.8812893000004,266.8812893000004,,001,P021,2025_May_08_1136,ConditionRich,2021.2.3,59.928648950561104,
223.75,224.0,41,0.0,Stimuli/Blank.png,0,0,0.0,0,96,96,96,,,,,,,,,,,,,223.76425400000016,0.014254000000164524,None,270.63464719999956,270.63464719999956,270.63464719999956,270.63464719999956,270.63464719999956,270.63464719999956,270.63464719999956,270.63464719999956,270.63464719999956,270.63464719999956,,001,P021,2025_May_08_1136,ConditionRich,2021.2.3,59.928648950561104,
224.0,227.75,5,0.75,Stimuli/P009/sun_akqvdmuauoxeafrj.jpg,1,2,2.75,0,97,97,97,,,,,,,,,,,,,224.01328779999994,0.013287799999943672,1,270.8849546000001,270.8849546000001,270.8849546000001,270.8849546000001,270.8849546000001,270.8849546000001,272.86962680000033,273.62068160000035,270.8849546000001,270.8849546000001,2.553290500000003,001,P021,2025_May_08_1136,ConditionRich,2021.2.3,59.928648950561104,
227.75,228.0,41,0.0,Stimuli/Blank.png,0,0,0.0,0,98,98,98,,,,,,,,,,,,,227.74978340000007,-0.0002165999999306223,None,274.6212405999995,274.6212405999995,274.6212405999995,274.6212405999995,274.6212405999995,274.6212405999995,274.6212405999995,274.6212405999995,274.6212405999995,274.6212405999995,,001,P021,2025_May_08_1136,ConditionRich,2021.2.3,59.928648950561104,
228.0,231.75,31,0.75,Stimuli/P009/things_girl_05s.jpg,1,1,1.75,0,99,99,99,,,,,,,,,,,,,228.00171369999998,0.0017136999999820546,None,274.8718640999996,274.8718640999996,274.8718640999996,274.8718640999996,274.8718640999996,274.8718640999996,275.85565789999964,276.60666279999987,274.8718640999996,274.8718640999996,,001,P021,2025_May_08_1136,ConditionRich,2021.2.3,59.928648950561104,
231.75,232.0,41,0.0,Stimuli/Blank.png,0,0,0.0,0,100,100,100,,,,,,,,,,,,,231.7545015999999,0.004501599999912287,None,278.62527859999955,278.62527859999955,278.62527859999955,278.62527859999955,278.62527859999955,278.62527859999955,278.62527859999955,278.62527859999955,278.62527859999955,278.62527859999955,,001,P021,2025_May_08_1136,ConditionRich,2021.2.3,59.928648950561104,
232.0,235.75,7,0.75,Stimuli/P009/sun_apiogxmvvzfmtsmj.jpg,0,0,0.0,0,101,101,101,,,,,,,,,,,,,232.00538929999993,0.005389299999933428,None,278.8753121,278.8753121,278.8753121,278.8753121,278.8753121,278.8753121,278.8753121,278.8753121,278.8753121,278.8753121,,001,P021,2025_May_08_1136,ConditionRich,2021.2.3,59.928648950561104,
235.75,236.0,41,0.0,Stimuli/Blank.png,0,0,0.0,0,102,102,102,,,,,,,,,,,,,235.75895170000013,0.008951700000125129,None,282.6286731,282.6286731,282.6286731,282.6286731,282.6286731,282.6286731,282.6286731,282.6286731,282.6286731,282.6286731,,001,P021,2025_May_08_1136,ConditionRich,2021.2.3,59.928648950561104,
236.0,239.75,2,0.75,Stimuli/P009/sun_acvloibbxiqpiwnv.jpg,0,0,0.0,0,103,103,103,,,,,,,,,,,,,236.00866129999986,0.008661299999857874,None,282.87872119999975,282.87872119999975,282.87872119999975,282.87872119999975,282.87872119999975,282.87872119999975,282.87872119999975,282.87872119999975,282.87872119999975,282.87872119999975,,001,P021,2025_May_08_1136,ConditionRich,2021.2.3,59.928648950561104,
239.75,240.0,41,0.0,Stimuli/Blank.png,0,0,0.0,0,104,104,104,,,,,,,,,,,,,239.76171029999978,0.011710299999776907,None,286.63231780000024,286.63231780000024,286.63231780000024,286.63231780000024,286.63231780000024,286.63231780000024,286.63231780000024,286.63231780000024,286.63231780000024,286.63231780000024,,001,P021,2025_May_08_1136,ConditionRich,2021.2.3,59.928648950561104,
240.0,243.75,11,0.75,Stimuli/P009/sun_bfyvfqiimvdaxlqn.jpg,0,0,0.0,0,105,105,105,,,,,,,,,,,,,240.01215790000015,0.012157900000147492,None,286.88221989999965,286.88221989999965,286.88221989999965,286.88221989999965,286.88221989999965,286.88221989999965,286.88221989999965,286.88221989999965,286.88221989999965,286.88221989999965,,001,P021,2025_May_08_1136,ConditionRich,2021.2.3,59.928648950561104,
243.75,244.0,41,0.0,Stimuli/Blank.png,0,0,0.0,0,106,106,106,,,,,,,,,,,,,243.76578130000007,0.015781300000071496,None,290.6356087000004,290.6356087000004,290.6356087000004,290.6356087000004,290.6356087000004,290.6356087000004,290.6356087000004,290.6356087000004,290.6356087000004,290.6356087000004,,001,P021,2025_May_08_1136,ConditionRich,2021.2.3,59.928648950561104,
244.0,247.75,32,0.75,Stimuli/P009/things_hawk_05s.jpg,0,0,0.0,0,107,107,107,,,,,,,,,,,,,243.99890540000024,-0.0010945999997602485,None,290.8688229999998,290.8688229999998,290.8688229999998,290.8688229999998,290.8688229999998,290.8688229999998,290.8688229999998,290.8688229999998,290.8688229999998,290.8688229999998,,001,P021,2025_May_08_1136,ConditionRich,2021.2.3,59.928648950561104,
247.75,248.0,41,0.0,Stimuli/Blank.png,0,0,0.0,0,108,108,108,,,,,,,,,,,,,247.75130360000048,0.0013036000004831294,None,294.6232387,294.6232387,294.6232387,294.6232387,294.6232387,294.6232387,294.6232387,294.6232387,294.6232387,294.6232387,,001,P021,2025_May_08_1136,ConditionRich,2021.2.3,59.928648950561104,
248.0,251.75,26,0.75,Stimuli/P009/things_cookie_sheet_05s.jpg,0,0,0.0,0,109,109,109,,,,,,,,,,,,,248.00150189999977,0.001501899999766465,None,294.8726494000002,294.8726494000002,294.8726494000002,294.8726494000002,294.8726494000002,294.8726494000002,294.8726494000002,294.8726494000002,294.8726494000002,294.8726494000002,,001,P021,2025_May_08_1136,ConditionRich,2021.2.3,59.928648950561104,
251.75,252.0,41,0.0,Stimuli/Blank.png,0,0,0.0,0,110,110,110,,,,,,,,,,,,,251.75578499999983,0.0057849999998325075,None,298.62580119999984,298.62580119999984,298.62580119999984,298.62580119999984,298.62580119999984,298.62580119999984,298.62580119999984,298.62580119999984,298.62580119999984,298.62580119999984,,001,P021,2025_May_08_1136,ConditionRich,2021.2.3,59.928648950561104,
252.0,255.75,14,0.75,Stimuli/P009/sun_blaqxdebghixzyyw.jpg,1,2,2.75,0,111,111,111,,,,,,,,,,,,,252.00641229999974,0.006412299999738025,None,298.8761035999996,298.8761035999996,298.8761035999996,298.8761035999996,298.8761035999996,298.8761035999996,300.8611056,301.61218670000017,298.8761035999996,298.8761035999996,,001,P021,2025_May_08_1136,ConditionRich,2021.2.3,59.928648950561104,
255.75,256.0,41,0.0,Stimuli/Blank.png,0,0,0.0,0,112,112,112,,,,,,,,,,,,,255.75879349999968,0.008793499999683263,None,302.62968569999975,302.62968569999975,302.62968569999975,302.62968569999975,302.62968569999975,302.62968569999975,302.62968569999975,302.62968569999975,302.62968569999975,302.62968569999975,,001,P021,2025_May_08_1136,ConditionRich,2021.2.3,59.928648950561104,
256.0,259.75,25,0.75,Stimuli/P009/things_clothespin_05s.jpg,0,0,0.0,0,113,113,113,,,,,,,,,,,,,256.0099696000002,0.009969600000204082,None,302.88101540000025,302.88101540000025,302.88101540000025,302.88101540000025,302.88101540000025,302.88101540000025,302.88101540000025,302.88101540000025,302.88101540000025,302.88101540000025,,001,P021,2025_May_08_1136,ConditionRich,2021.2.3,59.928648950561104,
259.75,260.0,41,0.0,Stimuli/Blank.png,0,0,0.0,0,114,114,114,,,,,,,,,,,,,259.7624503000002,0.012450300000182324,None,306.63337369999954,306.63337369999954,306.63337369999954,306.63337369999954,306.63337369999954,306.63337369999954,306.63337369999954,306.63337369999954,306.63337369999954,306.63337369999954,,001,P021,2025_May_08_1136,ConditionRich,2021.2.3,59.928648950561104,
260.0,263.75,21,0.75,Stimuli/P009/things_boy_05s.jpg,0,0,0.0,0,115,115,115,,,,,,,,,,,,,260.01320220000025,0.013202200000250741,None,306.8861273000002,306.8861273000002,306.8861273000002,306.8861273000002,306.8861273000002,306.8861273000002,306.8861273000002,306.8861273000002,306.8861273000002,306.8861273000002,,001,P021,2025_May_08_1136,ConditionRich,2021.2.3,59.928648950561104,
263.75,264.0,41,0.0,Stimuli/Blank.png,0,0,0.0,0,116,116,116,,,,,,,,,,,,,263.76614740000014,0.01614740000013626,None,310.63700719999997,310.63700719999997,310.63700719999997,310.63700719999997,310.63700719999997,310.63700719999997,310.63700719999997,310.63700719999997,310.63700719999997,310.63700719999997,,001,P021,2025_May_08_1136,ConditionRich,2021.2.3,59.928648950561104,
264.0,267.75,27,0.75,Stimuli/P009/things_curling_iron_05s.jpg,0,0,0.0,0,117,117,117,,,,,,,,,,,,,263.99911029999976,-0.0008897000002434652,None,310.87006089999977,310.87006089999977,310.87006089999977,310.87006089999977,310.87006089999977,310.87006089999977,310.87006089999977,310.87006089999977,310.87006089999977,310.87006089999977,,001,P021,2025_May_08_1136,ConditionRich,2021.2.3,59.928648950561104,
267.75,268.0,41,0.0,Stimuli/Blank.png,0,0,0.0,0,118,118,118,,,,,,,,,,,,,267.75357920000033,0.003579200000331184,None,314.62368679999963,314.62368679999963,314.62368679999963,314.62368679999963,314.62368679999963,314.62368679999963,314.62368679999963,314.62368679999963,314.62368679999963,314.62368679999963,,001,P021,2025_May_08_1136,ConditionRich,2021.2.3,59.928648950561104,
268.0,271.75,16,0.75,Stimuli/P009/sun_bqpyqljaflidcauh.jpg,0,0,0.0,0,119,119,119,,,,,,,,,,,,,268.0033324000001,0.0033324000000902743,None,314.8749383000004,314.8749383000004,314.8749383000004,314.8749383000004,314.8749383000004,314.8749383000004,314.8749383000004,314.8749383000004,314.8749383000004,314.8749383000004,,001,P021,2025_May_08_1136,ConditionRich,2021.2.3,59.928648950561104,
271.75,272.0,41,0.0,Stimuli/Blank.png,0,0,0.0,0,120,120,120,,,,,,,,,,,,,271.7563696000002,0.006369600000198261,None,318.62717669999984,318.62717669999984,318.62717669999984,318.62717669999984,318.62717669999984,318.62717669999984,318.62717669999984,318.62717669999984,318.62717669999984,318.62717669999984,,001,P021,2025_May_08_1136,ConditionRich,2021.2.3,59.928648950561104,
272.0,275.75,33,0.75,Stimuli/P009/things_lizard_05n.jpg,0,0,0.0,0,121,121,121,,,,,,,,,,,,,272.0074655000003,0.007465500000307657,None,318.88073780000013,318.88073780000013,318.88073780000013,318.88073780000013,318.88073780000013,318.88073780000013,318.88073780000013,318.88073780000013,318.88073780000013,318.88073780000013,,001,P021,2025_May_08_1136,ConditionRich,2021.2.3,59.928648950561104,
275.75,276.0,41,0.0,Stimuli/Blank.png,0,0,0.0,0,122,122,122,,,,,,,,,,,,,275.76057569999966,0.010575699999662902,None,322.63153349999993,322.63153349999993,322.63153349999993,322.63153349999993,322.63153349999993,322.63153349999993,322.63153349999993,322.63153349999993,322.63153349999993,322.63153349999993,,001,P021,2025_May_08_1136,ConditionRich,2021.2.3,59.928648950561104,
276.0,292.0,0,0.0,Stimuli/Blank.png,1,2,2.75,0,123,123,123,,,,,,,,,,,,,276.0107936999998,0.010793699999794626,1,322.88100550000036,322.88100550000036,322.88100550000036,322.88100550000036,322.88100550000036,322.88100550000036,324.86618799999997,325.6169355000002,322.88100550000036,322.88100550000036,2.516438699999526,001,P021,2025_May_08_1136,ConditionRich,2021.2.3,59.928648950561104,
292.0,295.75,13,0.75,Stimuli/P009/sun_bjimvgwadfodioes.jpg,0,0,0.0,0,124,124,124,,,,,,,,,,,,,292.0084831999998,0.008483199999773205,None,338.8818977000001,338.8818977000001,338.8818977000001,338.8818977000001,338.8818977000001,338.8818977000001,338.8818977000001,338.8818977000001,338.8818977000001,338.8818977000001,,001,P021,2025_May_08_1136,ConditionRich,2021.2.3,59.928648950561104,
295.75,296.0,41,0.0,Stimuli/Blank.png,0,0,0.0,0,125,125,125,,,,,,,,,,,,,295.76083359999984,0.010833599999841681,None,342.63201000000026,342.63201000000026,342.63201000000026,342.63201000000026,342.63201000000026,342.63201000000026,342.63201000000026,342.63201000000026,342.63201000000026,342.63201000000026,,001,P021,2025_May_08_1136,ConditionRich,2021.2.3,59.928648950561104,
296.0,299.75,36,0.75,Stimuli/P009/things_pelican_05s.jpg,1,3,3.75,0,126,126,126,,,,,,,,,,,,,296.0123286000003,0.012328600000273582,1,342.8849891,342.8849891,342.8849891,342.8849891,342.8849891,342.8849891,345.8844823999998,346.61851430000024,342.8849891,342.8849891,3.5863178999998127,001,P021,2025_May_08_1136,ConditionRich,2021.2.3,59.928648950561104,
299.75,300.0,41,0.0,Stimuli/Blank.png,0,0,0.0,0,127,127,127,,,,,,,,,,,,,299.76430910000045,0.014309100000446051,None,346.6354792000002,346.6354792000002,346.6354792000002,346.6354792000002,346.6354792000002,346.6354792000002,346.6354792000002,346.6354792000002,346.6354792000002,346.6354792000002,,001,P021,2025_May_08_1136,ConditionRich,2021.2.3,59.928648950561104,
300.0,303.75,1,0.75,Stimuli/P009/sun_abqdlumenyzawlme.jpg,0,0,0.0,0,128,128,128,,,,,,,,,,,,,300.0149782000003,0.014978200000314246,None,346.8855346,346.8855346,346.8855346,346.8855346,346.8855346,346.8855346,346.8855346,346.8855346,346.8855346,346.8855346,,001,P021,2025_May_08_1136,ConditionRich,2021.2.3,59.928648950561104,
303.75,304.0,41,0.0,Stimuli/Blank.png,0,0,0.0,0,129,129,129,,,,,,,,,,,,,303.7532054999997,0.003205499999694439,None,350.62400909999997,350.62400909999997,350.62400909999997,350.62400909999997,350.62400909999997,350.62400909999997,350.62400909999997,350.62400909999997,350.62400909999997,350.62400909999997,,001,P021,2025_May_08_1136,ConditionRich,2021.2.3,59.928648950561104,
304.0,307.75,4,0.75,Stimuli/P009/sun_afkzdukwewwzqtmr.jpg,0,0,0.0,0,130,130,130,,,,,,,,,,,,,304.0017217999998,0.0017217999998138112,None,350.8724026,350.8724026,350.8724026,350.8724026,350.8724026,350.8724026,350.8724026,350.8724026,350.8724026,350.8724026,,001,P021,2025_May_08_1136,ConditionRich,2021.2.3,59.928648950561104,
307.75,308.0,41,0.0,Stimuli/Blank.png,0,0,0.0,0,131,131,131,,,,,,,,,,,,,307.7546656999998,0.004665699999804929,None,354.6257386999996,354.6257386999996,354.6257386999996,354.6257386999996,354.6257386999996,354.6257386999996,354.6257386999996,354.6257386999996,354.6257386999996,354.6257386999996,,001,P021,2025_May_08_1136,ConditionRich,2021.2.3,59.928648950561104,
308.0,311.75,40,0.75,Stimuli/P009/things_woman_05s.jpg,0,0,0.0,0,132,132,132,,,,,,,,,,,,,308.0056480999997,0.005648099999689293,None,354.87605259999964,354.87605259999964,354.87605259999964,354.87605259999964,354.87605259999964,354.87605259999964,354.87605259999964,354.87605259999964,354.87605259999964,354.87605259999964,,001,P021,2025_May_08_1136,ConditionRich,2021.2.3,59.928648950561104,
311.75,312.0,41,0.0,Stimuli/Blank.png,0,0,0.0,0,133,133,133,,,,,,,,,,,,,311.75912689999996,0.00912689999995564,None,358.6291236999996,358.6291236999996,358.6291236999996,358.6291236999996,358.6291236999996,358.6291236999996,358.6291236999996,358.6291236999996,358.6291236999996,358.6291236999996,,001,P021,2025_May_08_1136,ConditionRich,2021.2.3,59.928648950561104,
312.0,315.75,12,0.75,Stimuli/P009/sun_birmwgkdtrlevcaf.jpg,0,0,0.0,0,134,134,134,,,,,,,,,,,,,312.0092103000002,0.009210300000177085,None,358.8800559000001,358.8800559000001,358.8800559000001,358.8800559000001,358.8800559000001,358.8800559000001,358.8800559000001,358.8800559000001,358.8800559000001,358.8800559000001,,001,P021,2025_May_08_1136,ConditionRich,2021.2.3,59.928648950561104,
315.75,316.0,41,0.0,Stimuli/Blank.png,0,0,0.0,0,135,135,135,,,,,,,,,,,,,315.7628083000004,0.012808300000415329,None,362.6326917999995,362.6326917999995,362.6326917999995,362.6326917999995,362.6326917999995,362.6326917999995,362.6326917999995,362.6326917999995,362.6326917999995,362.6326917999995,,001,P021,2025_May_08_1136,ConditionRich,2021.2.3,59.928648950561104,
316.0,319.75,22,0.75,Stimuli/P009/things_butterfly_05s.jpg,0,0,0.0,0,136,136,136,,,,,,,,,,,,,316.01248609999993,0.012486099999932776,None,362.8830662999999,362.8830662999999,362.8830662999999,362.8830662999999,362.8830662999999,362.8830662999999,362.8830662999999,362.8830662999999,362.8830662999999,362.8830662999999,,001,P021,2025_May_08_1136,ConditionRich,2021.2.3,59.928648950561104,
319.75,320.0,41,0.0,Stimuli/Blank.png,0,0,0.0,0,137,137,137,,,,,,,,,,,,,319.76555919999964,0.01555919999964317,None,366.6365268999998,366.6365268999998,366.6365268999998,366.6365268999998,366.6365268999998,366.6365268999998,366.6365268999998,366.6365268999998,366.6365268999998,366.6365268999998,,001,P021,2025_May_08_1136,ConditionRich,2021.2.3,59.928648950561104,
320.0,323.75,6,0.75,Stimuli/P009/sun_amkrwcyvinmsylsz.jpg,0,0,0.0,0,138,138,138,,,,,,,,,,,,,320.01820650000036,0.018206500000360393,None,366.8923821999997,366.8923821999997,366.8923821999997,366.8923821999997,366.8923821999997,366.8923821999997,366.8923821999997,366.8923821999997,366.8923821999997,366.8923821999997,,001,P021,2025_May_08_1136,ConditionRich,2021.2.3,59.928648950561104,
323.75,324.0,41,0.0,Stimuli/Blank.png,0,0,0.0,0,139,139,139,,,,,,,,,,,,,323.7528797,0.0028796999999940454,None,370.62335520000033,370.62335520000033,370.62335520000033,370.62335520000033,370.62335520000033,370.62335520000033,370.62335520000033,370.62335520000033,370.62335520000033,370.62335520000033,,001,P021,2025_May_08_1136,ConditionRich,2021.2.3,59.928648950561104,
324.0,327.75,39,0.75,Stimuli/P009/things_tiara_05s.jpg,0,0,0.0,0,140,140,140,,,,,,,,,,,,,324.00396969999974,0.00396969999974317,None,370.8752892000002,370.8752892000002,370.8752892000002,370.8752892000002,370.8752892000002,370.8752892000002,370.8752892000002,370.8752892000002,370.8752892000002,370.8752892000002,,001,P021,2025_May_08_1136,ConditionRich,2021.2.3,59.928648950561104,
327.75,328.0,41,0.0,Stimuli/Blank.png,0,0,0.0,0,141,141,141,,,,,,,,,,,,,327.7566142999999,0.006614299999910145,None,374.6269011000004,374.6269011000004,374.6269011000004,374.6269011000004,374.6269011000004,374.6269011000004,374.6269011000004,374.6269011000004,374.6269011000004,374.6269011000004,,001,P021,2025_May_08_1136,ConditionRich,2021.2.3,59.928648950561104,
328.0,331.75,3,0.75,Stimuli/P009/sun_aewgwsmvsgzleqhw.jpg,1,0,0.75,0,142,142,142,,,,,,,,,,,,,328.006304,0.006304000000000087,1,374.8769881999997,374.8769881999997,374.8769881999997,374.8769881999997,374.8769881999997,374.8769881999997,374.8769881999997,375.6110311000002,374.8769881999997,374.8769881999997,0.7521750999994765,001,P021,2025_May_08_1136,ConditionRich,2021.2.3,59.928648950561104,
331.75,332.0,41,0.0,Stimuli/Blank.png,0,0,0.0,0,143,143,143,,,,,,,,,,,,,331.76071869999987,0.010718699999870296,None,378.64713029999984,378.64713029999984,378.64713029999984,378.64713029999984,378.64713029999984,378.64713029999984,378.64713029999984,378.64713029999984,378.64713029999984,378.64713029999984,,001,P021,2025_May_08_1136,ConditionRich,2021.2.3,59.928648950561104,
332.0,335.75,28,0.75,Stimuli/P009/things_face_05s.jpg,0,0,0.0,0,144,144,144,,,,,,,,,,,,,332.02760780000017,0.027607800000168936,None,378.8999981999996,378.8999981999996,378.8999981999996,378.8999981999996,378.8999981999996,378.8999981999996,378.8999981999996,378.8999981999996,378.8999981999996,378.8999981999996,,001,P021,2025_May_08_1136,ConditionRich,2021.2.3,59.928648950561104,
335.75,336.0,41,0.0,Stimuli/Blank.png,0,0,0.0,0,145,145,145,,,,,,,,,,,,,335.76337749999993,0.013377499999933207,None,382.63449370000035,382.63449370000035,382.63449370000035,382.63449370000035,382.63449370000035,382.63449370000035,382.63449370000035,382.63449370000035,382.63449370000035,382.63449370000035,,001,P021,2025_May_08_1136,ConditionRich,2021.2.3,59.928648950561104,
336.0,339.75,10,0.75,Stimuli/P009/sun_bdkttewvyfdarikm.jpg,1,0,0.75,0,146,146,146,,,,,,,,,,,,,336.0125595000004,0.012559500000406842,1,382.88405150000017,382.88405150000017,382.88405150000017,382.88405150000017,382.88405150000017,382.88405150000017,382.88405150000017,383.618109,382.88405150000017,382.88405150000017,0.7401665000006687,001,P021,2025_May_08_1136,ConditionRich,2021.2.3,59.928648950561104,
339.75,340.0,41,0.0,Stimuli/Blank.png,0,0,0.0,0,147,147,147,,,,,,,,,,,,,339.7509121999997,0.0009121999996750674,None,386.6205885999998,386.6205885999998,386.6205885999998,386.6205885999998,386.6205885999998,386.6205885999998,386.6205885999998,386.6205885999998,386.6205885999998,386.6205885999998,,001,P021,2025_May_08_1136,ConditionRich,2021.2.3,59.928648950561104,
340.0,343.75,20,0.75,Stimuli/P009/sun_ddsiwinthvyejghq.jpg,1,3,3.75,0,148,148,148,,,,,,,,,,,,,340.00025080000023,0.00025080000023081084,1,386.87059130000034,386.87059130000034,386.87059130000034,386.87059130000034,386.87059130000034,386.87059130000034,389.8569773999998,390.6076046999997,386.87059130000034,386.87059130000034,3.7109518000006574,001,P021,2025_May_08_1136,ConditionRich,2021.2.3,59.928648950561104,
343.75,344.0,41,0.0,Stimuli/Blank.png,0,0,0.0,0,149,149,149,,,,,,,,,,,,,343.7538351999997,0.0038351999996848463,None,390.6243316,390.6243316,390.6243316,390.6243316,390.6243316,390.6243316,390.6243316,390.6243316,390.6243316,390.6243316,,001,P021,2025_May_08_1136,ConditionRich,2021.2.3,59.928648950561104,
344.0,347.75,30,0.75,Stimuli/P009/things_fire_05s.jpg,0,0,0.0,0,150,150,150,,,,,,,,,,,,,344.00299099999984,0.0029909999998380954,None,390.87439470000027,390.87439470000027,390.87439470000027,390.87439470000027,390.87439470000027,390.87439470000027,390.87439470000027,390.87439470000027,390.87439470000027,390.87439470000027,,001,P021,2025_May_08_1136,ConditionRich,2021.2.3,59.928648950561104,
347.75,348.0,41,0.0,Stimuli/Blank.png,0,0,0.0,0,151,151,151,,,,,,,,,,,,,347.7575847000003,0.007584700000279554,None,394.6276810999998,394.6276810999998,394.6276810999998,394.6276810999998,394.6276810999998,394.6276810999998,394.6276810999998,394.6276810999998,394.6276810999998,394.6276810999998,,001,P021,2025_May_08_1136,ConditionRich,2021.2.3,59.928648950561104,
348.0,351.75,8,0.75,Stimuli/P009/sun_batcnoizlkeiqdtx.jpg,0,0,0.0,0,152,152,152,,,,,,,,,,,,,348.0077513000001,0.00775130000010904,None,394.87802459999966,394.87802459999966,394.87802459999966,394.87802459999966,394.87802459999966,394.87802459999966,394.87802459999966,394.87802459999966,394.87802459999966,394.87802459999966,,001,P021,2025_May_08_1136,ConditionRich,2021.2.3,59.928648950561104,
351.75,352.0,41,0.0,Stimuli/Blank.png,0,0,0.0,0,153,153,153,,,,,,,,,,,,,351.7603866000004,0.010386600000401813,None,398.63124340000013,398.63124340000013,398.63124340000013,398.63124340000013,398.63124340000013,398.63124340000013,398.63124340000013,398.63124340000013,398.63124340000013,398.63124340000013,,001,P021,2025_May_08_1136,ConditionRich,2021.2.3,59.928648950561104,
352.0,355.75,35,0.75,Stimuli/P009/things_mushroom_05n.jpg,0,0,0.0,0,154,154,154,,,,,,,,,,,,,352.0110109000002,0.011010900000201218,None,398.8820919,398.8820919,398.8820919,398.8820919,398.8820919,398.8820919,398.8820919,398.8820919,398.8820919,398.8820919,,001,P021,2025_May_08_1136,ConditionRich,2021.2.3,59.928648950561104,
355.75,356.0,41,0.0,Stimuli/Blank.png,0,0,0.0,0,155,155,155,,,,,,,,,,,,,355.7640157999999,0.014015799999924639,None,402.63503760000003,402.63503760000003,402.63503760000003,402.63503760000003,402.63503760000003,402.63503760000003,402.63503760000003,402.63503760000003,402.63503760000003,402.63503760000003,,001,P021,2025_May_08_1136,ConditionRich,2021.2.3,59.928648950561104,
356.0,359.75,37,0.75,Stimuli/P009/things_pug_05s.jpg,0,0,0.0,0,156,156,156,,,,,,,,,,,,,356.0156745999998,0.015674599999783823,None,402.8851744000003,402.8851744000003,402.8851744000003,402.8851744000003,402.8851744000003,402.8851744000003,402.8851744000003,402.8851744000003,402.8851744000003,402.8851744000003,,001,P021,2025_May_08_1136,ConditionRich,2021.2.3,59.928648950561104,
359.75,360.0,41,0.0,Stimuli/Blank.png,0,0,0.0,0,157,157,157,,,,,,,,,,,,,359.75183590000006,0.0018359000000600645,None,406.6217225999999,406.6217225999999,406.6217225999999,406.6217225999999,406.6217225999999,406.6217225999999,406.6217225999999,406.6217225999999,406.6217225999999,406.6217225999999,,001,P021,2025_May_08_1136,ConditionRich,2021.2.3,59.928648950561104,
360.0,363.75,15,0.75,Stimuli/P009/sun_boryivbddrnarrbo.jpg,0,0,0.0,0,158,158,158,,,,,,,,,,,,,360.00177719999965,0.0017771999996512022,None,406.87257469999986,406.87257469999986,406.87257469999986,406.87257469999986,406.87257469999986,406.87257469999986,406.87257469999986,406.87257469999986,406.87257469999986,406.87257469999986,,001,P021,2025_May_08_1136,ConditionRich,2021.2.3,59.928648950561104,
363.75,364.0,41,0.0,Stimuli/Blank.png,0,0,0.0,0,159,159,159,,,,,,,,,,,,,363.7542494000004,0.004249400000389869,None,410.62538440000026,410.62538440000026,410.62538440000026,410.62538440000026,410.62538440000026,410.62538440000026,410.62538440000026,410.62538440000026,410.62538440000026,410.62538440000026,,001,P021,2025_May_08_1136,ConditionRich,2021.2.3,59.928648950561104,
364.0,367.75,29,0.75,Stimuli/P009/things_fingerprint_05s.jpg,0,0,0.0,0,160,160,160,,,,,,,,,,,,,364.00522950000004,0.005229500000041298,None,410.87572590000036,410.87572590000036,410.87572590000036,410.87572590000036,410.87572590000036,410.87572590000036,410.87572590000036,410.87572590000036,410.87572590000036,410.87572590000036,,001,P021,2025_May_08_1136,ConditionRich,2021.2.3,59.928648950561104,
367.75,368.0,41,0.0,Stimuli/Blank.png,0,0,0.0,0,161,161,161,,,,,,,,,,,,,367.7583775999997,0.008377599999676022,None,414.62891990000026,414.62891990000026,414.62891990000026,414.62891990000026,414.62891990000026,414.62891990000026,414.62891990000026,414.62891990000026,414.62891990000026,414.62891990000026,,001,P021,2025_May_08_1136,ConditionRich,2021.2.3,59.928648950561104,
368.0,371.75,24,0.75,Stimuli/P009/things_cigar_05n.jpg,0,0,0.0,0,162,162,162,,,,,,,,,,,,,368.00897829999985,0.008978299999853334,None,414.8789780999996,414.8789780999996,414.8789780999996,414.8789780999996,414.8789780999996,414.8789780999996,414.8789780999996,414.8789780999996,414.8789780999996,414.8789780999996,,001,P021,2025_May_08_1136,ConditionRich,2021.2.3,59.928648950561104,
371.75,372.0,41,0.0,Stimuli/Blank.png,0,0,0.0,0,163,163,163,,,,,,,,,,,,,371.76122710000027,0.011227100000269274,None,418.6324009,418.6324009,418.6324009,418.6324009,418.6324009,418.6324009,418.6324009,418.6324009,418.6324009,418.6324009,,001,P021,2025_May_08_1136,ConditionRich,2021.2.3,59.928648950561104,
372.0,388.0,0,0.0,Stimuli/Blank.png,1,12,12.75,0,164,164,164,,,,,,,,,,,,,372.0123011999999,0.01230119999991075,1,418.8826901000002,418.8826901000002,418.8826901000002,418.8826901000002,418.8826901000002,418.8826901000002,430.8765199999998,431.6271061999996,418.8826901000002,418.8826901000002,12.515503000000535,001,P021,2025_May_08_1136,ConditionRich,2021.2.3,59.928648950561104,
