eventStartTime,eventEndTime,eventCond,imSize,imFile,responseEvent,fixRespStart,fixRespEnd,Events.thisRepN,Events.thisTrialN,Events.thisN,Events.thisIndex,Instructions.started,Instructions.stopped,participantReadyResponse.keys,participantReadyResponse.rt,participantReadyResponse.started,participantReadyResponse.stopped,startWaitforTrigger,triggerResponse.keys,triggerResponse.rt,triggerResponse.started,triggerResponse.stopped,globalTimer,actualStartTime,startTimingDiff,participantResponse.keys,participantResponse.started,participantResponse.stopped,image.started,image.stopped,fixationOutside.started,fixationOutside.stopped,fixationResponse.started,fixationResponse.stopped,fixationInside.started,fixationInside.stopped,participantResponse.rt,session,participant,date,expName,psychopyVersion,frameRate,
,,,,,,,,,,,,32.69349439999951,None,2,0.8487795999999435,32.69349439999951,None,,,,,,,,,,,,,,,,,,,,,008,P021,2025_May_08_1239,ConditionRich,2021.2.3,59.932025097038114,
,,,,,,,,,,,,,,,,,,33.54800230000001,5,13.923829600000317,33.56127629999992,None,,,,,,,,,,,,,,,,008,P021,2025_May_08_1239,ConditionRich,2021.2.3,59.932025097038114,
0.0,4.0,0,0.0,Stimuli/Blank.png,0,0.0,0.0,0,0,0,0,,,,,,,,,,,,47.49301800000012,0.027629899999737972,0.027629899999737972,None,47.54022619999978,None,47.54022619999978,None,47.54022619999978,None,47.54022619999978,47.54022619999978,47.54022619999978,None,,008,P021,2025_May_08_1239,ConditionRich,2021.2.3,59.932025097038114,
4.0,4.75,37,0.75,Stimuli/P009/things_pug_05s.jpg,0,0.0,0.0,0,1,1,1,,,,,,,,,,,,,4.020626900000025,0.02062690000002476,None,51.54402719999962,51.54402719999962,51.54402719999962,51.54402719999962,51.54402719999962,51.54402719999962,51.54402719999962,51.54402719999962,51.54402719999962,51.54402719999962,,008,P021,2025_May_08_1239,ConditionRich,2021.2.3,59.932025097038114,
4.75,8.0,41,0.0,Stimuli/Blank.png,0,0.0,0.0,0,2,2,2,,,,,,,,,,,,,4.770225799999935,0.02022579999993468,None,52.278029299999616,52.278029299999616,52.278029299999616,52.278029299999616,52.278029299999616,52.278029299999616,52.278029299999616,52.278029299999616,52.278029299999616,52.278029299999616,,008,P021,2025_May_08_1239,ConditionRich,2021.2.3,59.932025097038114,
8.0,8.75,3,0.75,Stimuli/P009/sun_aewgwsmvsgzleqhw.jpg,0,0.0,0.0,0,3,3,3,,,,,,,,,,,,,8.00638170000002,0.006381700000019919,None,55.530660699999316,55.530660699999316,55.530660699999316,55.530660699999316,55.530660699999316,55.530660699999316,55.530660699999316,55.530660699999316,55.530660699999316,55.530660699999316,,008,P021,2025_May_08_1239,ConditionRich,2021.2.3,59.932025097038114,
8.75,12.0,41,0.0,Stimuli/Blank.png,1,1.25,2.0,0,4,4,4,,,,,,,,,,,,,8.774958699999843,0.024958699999842793,2,56.28129709999939,56.28129709999939,56.28129709999939,56.28129709999939,56.28129709999939,56.28129709999939,57.515720399999736,58.26638439999988,56.28129709999939,56.28129709999939,1.7310767000008127,008,P021,2025_May_08_1239,ConditionRich,2021.2.3,59.932025097038114,
12.0,12.75,22,0.75,Stimuli/P009/things_butterfly_05s.jpg,1,0.0,0.75,0,5,5,5,,,,,,,,,,,,,12.010924400000476,0.010924400000476453,None,59.53418359999978,59.53418359999978,59.53418359999978,59.53418359999978,59.53418359999978,59.53418359999978,59.53418359999978,60.251465299999836,59.53418359999978,59.53418359999978,,008,P021,2025_May_08_1239,ConditionRich,2021.2.3,59.932025097038114,
12.75,16.0,41,0.0,Stimuli/Blank.png,0,0.0,0.0,0,6,6,6,,,,,,,,,,,,,12.778187900000376,0.02818790000037552,2,60.284845099999984,60.284845099999984,60.284845099999984,60.284845099999984,60.284845099999984,60.284845099999984,60.284845099999984,60.284845099999984,60.284845099999984,60.284845099999984,0.8304332999996404,008,P021,2025_May_08_1239,ConditionRich,2021.2.3,59.932025097038114,
16.0,16.75,23,0.75,Stimuli/P009/things_charger_05s.jpg,0,0.0,0.0,0,7,7,7,,,,,,,,,,,,,16.01404460000049,0.014044600000488572,None,63.52102439999999,63.52102439999999,63.52102439999999,63.52102439999999,63.52102439999999,63.52102439999999,63.52102439999999,63.52102439999999,63.52102439999999,63.52102439999999,,008,P021,2025_May_08_1239,ConditionRich,2021.2.3,59.932025097038114,
16.75,20.0,41,0.0,Stimuli/Blank.png,0,0.0,0.0,0,8,8,8,,,,,,,,,,,,,16.764130499999737,0.014130499999737367,None,64.27166039999975,64.27166039999975,64.27166039999975,64.27166039999975,64.27166039999975,64.27166039999975,64.27166039999975,64.27166039999975,64.27166039999975,64.27166039999975,,008,P021,2025_May_08_1239,ConditionRich,2021.2.3,59.932025097038114,
20.0,20.75,40,0.75,Stimuli/P009/things_woman_05s.jpg,0,0.0,0.0,0,9,9,9,,,,,,,,,,,,,20.000850500000524,0.0008505000005243346,None,67.50787570000011,67.50787570000011,67.50787570000011,67.50787570000011,67.50787570000011,67.50787570000011,67.50787570000011,67.50787570000011,67.50787570000011,67.50787570000011,,008,P021,2025_May_08_1239,ConditionRich,2021.2.3,59.932025097038114,
20.75,24.0,41,0.0,Stimuli/Blank.png,0,0.0,0.0,0,10,10,10,,,,,,,,,,,,,20.750874100000146,0.0008741000001464272,None,68.25855349999983,68.25855349999983,68.25855349999983,68.25855349999983,68.25855349999983,68.25855349999983,68.25855349999983,68.25855349999983,68.25855349999983,68.25855349999983,,008,P021,2025_May_08_1239,ConditionRich,2021.2.3,59.932025097038114,
24.0,24.75,18,0.75,Stimuli/P009/sun_bwjdahsxcqepqqbm.jpg,0,0.0,0.0,0,11,11,11,,,,,,,,,,,,,24.00479859999996,0.004798599999958242,None,71.51141359999929,71.51141359999929,71.51141359999929,71.51141359999929,71.51141359999929,71.51141359999929,71.51141359999929,71.51141359999929,71.51141359999929,71.51141359999929,,008,P021,2025_May_08_1239,ConditionRich,2021.2.3,59.932025097038114,
24.75,28.0,41,0.0,Stimuli/Blank.png,0,0.0,0.0,0,12,12,12,,,,,,,,,,,,,24.754421300000104,0.004421300000103656,None,72.2620810999997,72.2620810999997,72.2620810999997,72.2620810999997,72.2620810999997,72.2620810999997,72.2620810999997,72.2620810999997,72.2620810999997,72.2620810999997,,008,P021,2025_May_08_1239,ConditionRich,2021.2.3,59.932025097038114,
28.0,28.75,26,0.75,Stimuli/P009/things_cookie_sheet_05s.jpg,0,0.0,0.0,0,13,13,13,,,,,,,,,,,,,28.007469799999853,0.0074697999998534215,None,75.51496169999973,75.51496169999973,75.51496169999973,75.51496169999973,75.51496169999973,75.51496169999973,75.51496169999973,75.51496169999973,75.51496169999973,75.51496169999973,,008,P021,2025_May_08_1239,ConditionRich,2021.2.3,59.932025097038114,
28.75,32.0,41,0.0,Stimuli/Blank.png,0,0.0,0.0,0,14,14,14,,,,,,,,,,,,,28.757952099999784,0.007952099999783968,None,76.26562019999983,76.26562019999983,76.26562019999983,76.26562019999983,76.26562019999983,76.26562019999983,76.26562019999983,76.26562019999983,76.26562019999983,76.26562019999983,,008,P021,2025_May_08_1239,ConditionRich,2021.2.3,59.932025097038114,
32.0,32.75,31,0.75,Stimuli/P009/things_girl_05s.jpg,0,0.0,0.0,0,15,15,15,,,,,,,,,,,,,32.013883100000385,0.01388310000038473,None,79.53518230000009,79.53518230000009,79.53518230000009,79.53518230000009,79.53518230000009,79.53518230000009,79.53518230000009,79.53518230000009,79.53518230000009,79.53518230000009,,008,P021,2025_May_08_1239,ConditionRich,2021.2.3,59.932025097038114,
32.75,36.0,41,0.0,Stimuli/Blank.png,1,0.25,1.0,0,16,16,16,,,,,,,,,,,,,32.77896049999981,0.028960499999811873,2,80.28585289999955,80.28585289999955,80.28585289999955,80.28585289999955,80.28585289999955,80.28585289999955,80.51942999999937,81.27004639999996,80.28585289999955,80.28585289999955,0.7126502000000983,008,P021,2025_May_08_1239,ConditionRich,2021.2.3,59.932025097038114,
36.0,36.75,30,0.75,Stimuli/P009/things_fire_05s.jpg,0,0.0,0.0,0,17,17,17,,,,,,,,,,,,,36.015123199999834,0.015123199999834469,None,83.52202919999945,83.52202919999945,83.52202919999945,83.52202919999945,83.52202919999945,83.52202919999945,83.52202919999945,83.52202919999945,83.52202919999945,83.52202919999945,,008,P021,2025_May_08_1239,ConditionRich,2021.2.3,59.932025097038114,
36.75,40.0,41,0.0,Stimuli/Blank.png,1,1.25,2.0,0,18,18,18,,,,,,,,,,,,,36.74926250000044,-0.000737499999559077,2,84.25603109999975,84.25603109999975,84.25603109999975,84.25603109999975,84.25603109999975,84.25603109999975,85.49043840000013,86.2411874999998,84.25603109999975,84.25603109999975,1.8322109000000637,008,P021,2025_May_08_1239,ConditionRich,2021.2.3,59.932025097038114,
40.0,40.75,13,0.75,Stimuli/P009/sun_bjimvgwadfodioes.jpg,0,0.0,0.0,0,19,19,19,,,,,,,,,,,,,40.00411290000011,0.004112900000109221,None,87.52556980000008,87.52556980000008,87.52556980000008,87.52556980000008,87.52556980000008,87.52556980000008,87.52556980000008,87.52556980000008,87.52556980000008,87.52556980000008,,008,P021,2025_May_08_1239,ConditionRich,2021.2.3,59.932025097038114,
40.75,44.0,41,0.0,Stimuli/Blank.png,0,0.0,0.0,0,20,20,20,,,,,,,,,,,,,40.76868280000053,0.01868280000053346,None,88.2762303999998,88.2762303999998,88.2762303999998,88.2762303999998,88.2762303999998,88.2762303999998,88.2762303999998,88.2762303999998,88.2762303999998,88.2762303999998,,008,P021,2025_May_08_1239,ConditionRich,2021.2.3,59.932025097038114,
44.0,44.75,8,0.75,Stimuli/P009/sun_batcnoizlkeiqdtx.jpg,0,0.0,0.0,0,21,21,21,,,,,,,,,,,,,44.004992799999854,0.004992799999854469,None,91.51243059999979,91.51243059999979,91.51243059999979,91.51243059999979,91.51243059999979,91.51243059999979,91.51243059999979,91.51243059999979,91.51243059999979,91.51243059999979,,008,P021,2025_May_08_1239,ConditionRich,2021.2.3,59.932025097038114,
44.75,48.0,41,0.0,Stimuli/Blank.png,0,0.0,0.0,0,22,22,22,,,,,,,,,,,,,44.75848070000029,0.008480700000291108,None,92.27979039999991,92.27979039999991,92.27979039999991,92.27979039999991,92.27979039999991,92.27979039999991,92.27979039999991,92.27979039999991,92.27979039999991,92.27979039999991,,008,P021,2025_May_08_1239,ConditionRich,2021.2.3,59.932025097038114,
48.0,48.75,4,0.75,Stimuli/P009/sun_afkzdukwewwzqtmr.jpg,0,0.0,0.0,0,23,23,23,,,,,,,,,,,,,48.02500039999995,0.025000399999953515,None,95.53264169999966,95.53264169999966,95.53264169999966,95.53264169999966,95.53264169999966,95.53264169999966,95.53264169999966,95.53264169999966,95.53264169999966,95.53264169999966,,008,P021,2025_May_08_1239,ConditionRich,2021.2.3,59.932025097038114,
48.75,52.0,41,0.0,Stimuli/Blank.png,0,0.0,0.0,0,24,24,24,,,,,,,,,,,,,48.75911840000026,0.009118400000261317,None,96.26660379999976,96.26660379999976,96.26660379999976,96.26660379999976,96.26660379999976,96.26660379999976,96.26660379999976,96.26660379999976,96.26660379999976,96.26660379999976,,008,P021,2025_May_08_1239,ConditionRich,2021.2.3,59.932025097038114,
52.0,52.75,11,0.75,Stimuli/P009/sun_bfyvfqiimvdaxlqn.jpg,0,0.0,0.0,0,25,25,25,,,,,,,,,,,,,52.01240460000008,0.0124046000000817,None,99.51950390000002,99.51950390000002,99.51950390000002,99.51950390000002,99.51950390000002,99.51950390000002,99.51950390000002,99.51950390000002,99.51950390000002,99.51950390000002,,008,P021,2025_May_08_1239,ConditionRich,2021.2.3,59.932025097038114,
52.75,56.0,41,0.0,Stimuli/Blank.png,0,0.0,0.0,0,26,26,26,,,,,,,,,,,,,52.76283270000022,0.0128327000002173,None,100.27017199999955,100.27017199999955,100.27017199999955,100.27017199999955,100.27017199999955,100.27017199999955,100.27017199999955,100.27017199999955,100.27017199999955,100.27017199999955,,008,P021,2025_May_08_1239,ConditionRich,2021.2.3,59.932025097038114,
56.0,56.75,15,0.75,Stimuli/P009/sun_boryivbddrnarrbo.jpg,0,0.0,0.0,0,27,27,27,,,,,,,,,,,,,56.000383700000384,0.000383700000384124,None,103.52303479999955,103.52303479999955,103.52303479999955,103.52303479999955,103.52303479999955,103.52303479999955,103.52303479999955,103.52303479999955,103.52303479999955,103.52303479999955,,008,P021,2025_May_08_1239,ConditionRich,2021.2.3,59.932025097038114,
56.75,60.0,41,0.0,Stimuli/Blank.png,0,0.0,0.0,0,28,28,28,,,,,,,,,,,,,56.766751600000134,0.016751600000134204,None,104.27370379999957,104.27370379999957,104.27370379999957,104.27370379999957,104.27370379999957,104.27370379999957,104.27370379999957,104.27370379999957,104.27370379999957,104.27370379999957,,008,P021,2025_May_08_1239,ConditionRich,2021.2.3,59.932025097038114,
60.0,60.75,2,0.75,Stimuli/P009/sun_acvloibbxiqpiwnv.jpg,0,0.0,0.0,0,29,29,29,,,,,,,,,,,,,60.00296570000046,0.0029657000004590373,None,107.50991009999962,107.50991009999962,107.50991009999962,107.50991009999962,107.50991009999962,107.50991009999962,107.50991009999962,107.50991009999962,107.50991009999962,107.50991009999962,,008,P021,2025_May_08_1239,ConditionRich,2021.2.3,59.932025097038114,
60.75,64.0,41,0.0,Stimuli/Blank.png,0,0.0,0.0,0,30,30,30,,,,,,,,,,,,,60.752901400000155,0.002901400000155263,None,108.26055540000016,108.26055540000016,108.26055540000016,108.26055540000016,108.26055540000016,108.26055540000016,108.26055540000016,108.26055540000016,108.26055540000016,108.26055540000016,,008,P021,2025_May_08_1239,ConditionRich,2021.2.3,59.932025097038114,
64.0,64.75,9,0.75,Stimuli/P009/sun_bdjkvwqqqycuixtc.jpg,0,0.0,0.0,0,31,31,31,,,,,,,,,,,,,64.00848529999985,0.008485299999847484,None,111.53010289999929,111.53010289999929,111.53010289999929,111.53010289999929,111.53010289999929,111.53010289999929,111.53010289999929,111.53010289999929,111.53010289999929,111.53010289999929,,008,P021,2025_May_08_1239,ConditionRich,2021.2.3,59.932025097038114,
64.75,68.0,41,0.0,Stimuli/Blank.png,0,0.0,0.0,0,32,32,32,,,,,,,,,,,,,64.77308040000025,0.023080400000253576,None,112.28077469999971,112.28077469999971,112.28077469999971,112.28077469999971,112.28077469999971,112.28077469999971,112.28077469999971,112.28077469999971,112.28077469999971,112.28077469999971,,008,P021,2025_May_08_1239,ConditionRich,2021.2.3,59.932025097038114,
68.0,68.75,7,0.75,Stimuli/P009/sun_apiogxmvvzfmtsmj.jpg,0,0.0,0.0,0,33,33,33,,,,,,,,,,,,,68.01040110000031,0.010401100000308361,None,115.51696919999995,115.51696919999995,115.51696919999995,115.51696919999995,115.51696919999995,115.51696919999995,115.51696919999995,115.51696919999995,115.51696919999995,115.51696919999995,,008,P021,2025_May_08_1239,ConditionRich,2021.2.3,59.932025097038114,
68.75,72.0,41,0.0,Stimuli/Blank.png,0,0.0,0.0,0,34,34,34,,,,,,,,,,,,,68.76023020000048,0.010230200000478362,None,116.26763189999929,116.26763189999929,116.26763189999929,116.26763189999929,116.26763189999929,116.26763189999929,116.26763189999929,116.26763189999929,116.26763189999929,116.26763189999929,,008,P021,2025_May_08_1239,ConditionRich,2021.2.3,59.932025097038114,
72.0,72.75,20,0.75,Stimuli/P009/sun_ddsiwinthvyejghq.jpg,0,0.0,0.0,0,35,35,35,,,,,,,,,,,,,72.01339590000043,0.013395900000432448,None,119.52062789999945,119.52062789999945,119.52062789999945,119.52062789999945,119.52062789999945,119.52062789999945,119.52062789999945,119.52062789999945,119.52062789999945,119.52062789999945,,008,P021,2025_May_08_1239,ConditionRich,2021.2.3,59.932025097038114,
72.75,76.0,41,0.0,Stimuli/Blank.png,0,0.0,0.0,0,36,36,36,,,,,,,,,,,,,72.76352870000028,0.01352870000027906,None,120.27113550000013,120.27113550000013,120.27113550000013,120.27113550000013,120.27113550000013,120.27113550000013,120.27113550000013,120.27113550000013,120.27113550000013,120.27113550000013,,008,P021,2025_May_08_1239,ConditionRich,2021.2.3,59.932025097038114,
76.0,76.75,39,0.75,Stimuli/P009/things_tiara_05s.jpg,0,0.0,0.0,0,37,37,37,,,,,,,,,,,,,75.99984270000004,-0.00015729999995528487,None,123.50735919999988,123.50735919999988,123.50735919999988,123.50735919999988,123.50735919999988,123.50735919999988,123.50735919999988,123.50735919999988,123.50735919999988,123.50735919999988,,008,P021,2025_May_08_1239,ConditionRich,2021.2.3,59.932025097038114,
76.75,80.0,41,0.0,Stimuli/Blank.png,1,0.25,1.0,0,38,38,38,,,,,,,,,,,,,76.75108569999975,0.0010856999997486128,2,124.25802179999937,124.25802179999937,124.25802179999937,124.25802179999937,124.25802179999937,124.25802179999937,124.49156049999965,125.24228419999963,124.25802179999937,124.25802179999937,0.9191184999999678,008,P021,2025_May_08_1239,ConditionRich,2021.2.3,59.932025097038114,
80.0,80.75,17,0.75,Stimuli/P009/sun_brkrfjpyfglmigkk.jpg,0,0.0,0.0,0,39,39,39,,,,,,,,,,,,,80.00406620000012,0.004066200000124809,None,127.52759209999931,127.52759209999931,127.52759209999931,127.52759209999931,127.52759209999931,127.52759209999931,127.52759209999931,127.52759209999931,127.52759209999931,127.52759209999931,,008,P021,2025_May_08_1239,ConditionRich,2021.2.3,59.932025097038114,
80.75,84.0,41,0.0,Stimuli/Blank.png,0,0.0,0.0,0,40,40,40,,,,,,,,,,,,,80.77140060000056,0.0214006000005611,None,128.27825609999945,128.27825609999945,128.27825609999945,128.27825609999945,128.27825609999945,128.27825609999945,128.27825609999945,128.27825609999945,128.27825609999945,128.27825609999945,,008,P021,2025_May_08_1239,ConditionRich,2021.2.3,59.932025097038114,
84.0,100.0,0,0.0,Stimuli/Blank.png,1,8.0,8.75,0,41,41,41,,,,,,,,,,,,,84.00743750000038,0.00743750000037835,2,131.51449569999932,131.51449569999932,131.51449569999932,131.51449569999932,131.51449569999932,131.51449569999932,139.50482610000017,140.25545349999993,131.51449569999932,131.51449569999932,8.9159051000006,008,P021,2025_May_08_1239,ConditionRich,2021.2.3,59.932025097038114,
100.0,100.75,19,0.75,Stimuli/P009/sun_bwvfnogmotsvhofs.jpg,0,0.0,0.0,0,42,42,42,,,,,,,,,,,,,100.00435389999984,0.004353899999841815,None,147.51189849999992,147.51189849999992,147.51189849999992,147.51189849999992,147.51189849999992,147.51189849999992,147.51189849999992,147.51189849999992,147.51189849999992,147.51189849999992,,008,P021,2025_May_08_1239,ConditionRich,2021.2.3,59.932025097038114,
100.75,104.0,41,0.0,Stimuli/Blank.png,1,2.25,3.0,0,43,43,43,,,,,,,,,,,,,100.7553482000003,0.005348200000298675,2,148.2625782999994,148.2625782999994,148.2625782999994,148.2625782999994,148.2625782999994,148.2625782999994,150.4978904999998,151.24857949999932,148.2625782999994,148.2625782999994,2.65374090000023,008,P021,2025_May_08_1239,ConditionRich,2021.2.3,59.932025097038114,
104.0,104.75,28,0.75,Stimuli/P009/things_face_05s.jpg,0,0.0,0.0,0,44,44,44,,,,,,,,,,,,,104.00779870000042,0.007798700000421377,None,151.51544879999983,151.51544879999983,151.51544879999983,151.51544879999983,151.51544879999983,151.51544879999983,151.51544879999983,151.51544879999983,151.51544879999983,151.51544879999983,,008,P021,2025_May_08_1239,ConditionRich,2021.2.3,59.932025097038114,
104.75,108.0,41,0.0,Stimuli/Blank.png,0,0.0,0.0,0,45,45,45,,,,,,,,,,,,,104.75974320000023,0.00974320000022999,None,152.26611239999966,152.26611239999966,152.26611239999966,152.26611239999966,152.26611239999966,152.26611239999966,152.26611239999966,152.26611239999966,152.26611239999966,152.26611239999966,,008,P021,2025_May_08_1239,ConditionRich,2021.2.3,59.932025097038114,
108.0,108.75,24,0.75,Stimuli/P009/things_cigar_05n.jpg,0,0.0,0.0,0,46,46,46,,,,,,,,,,,,,108.01231180000013,0.012311800000134099,None,155.51898359999996,155.51898359999996,155.51898359999996,155.51898359999996,155.51898359999996,155.51898359999996,155.51898359999996,155.51898359999996,155.51898359999996,155.51898359999996,,008,P021,2025_May_08_1239,ConditionRich,2021.2.3,59.932025097038114,
108.75,112.0,41,0.0,Stimuli/Blank.png,0,0.0,0.0,0,47,47,47,,,,,,,,,,,,,108.76275820000046,0.012758200000462239,None,156.2696320999994,156.2696320999994,156.2696320999994,156.2696320999994,156.2696320999994,156.2696320999994,156.2696320999994,156.2696320999994,156.2696320999994,156.2696320999994,,008,P021,2025_May_08_1239,ConditionRich,2021.2.3,59.932025097038114,
112.0,112.75,16,0.75,Stimuli/P009/sun_bqpyqljaflidcauh.jpg,0,0.0,0.0,0,48,48,48,,,,,,,,,,,,,112.0151334000002,0.015133400000195252,None,159.5225047999993,159.5225047999993,159.5225047999993,159.5225047999993,159.5225047999993,159.5225047999993,159.5225047999993,159.5225047999993,159.5225047999993,159.5225047999993,,008,P021,2025_May_08_1239,ConditionRich,2021.2.3,59.932025097038114,
112.75,116.0,41,0.0,Stimuli/Blank.png,0,0.0,0.0,0,49,49,49,,,,,,,,,,,,,112.7487970000002,-0.001202999999804888,None,160.25649749999957,160.25649749999957,160.25649749999957,160.25649749999957,160.25649749999957,160.25649749999957,160.25649749999957,160.25649749999957,160.25649749999957,160.25649749999957,,008,P021,2025_May_08_1239,ConditionRich,2021.2.3,59.932025097038114,
116.0,116.75,10,0.75,Stimuli/P009/sun_bdkttewvyfdarikm.jpg,0,0.0,0.0,0,50,50,50,,,,,,,,,,,,,116.00394140000026,0.003941400000258,None,163.52606190000006,163.52606190000006,163.52606190000006,163.52606190000006,163.52606190000006,163.52606190000006,163.52606190000006,163.52606190000006,163.52606190000006,163.52606190000006,,008,P021,2025_May_08_1239,ConditionRich,2021.2.3,59.932025097038114,
116.75,120.0,41,0.0,Stimuli/Blank.png,0,0.0,0.0,0,51,51,51,,,,,,,,,,,,,116.76978419999978,0.01978419999977632,None,164.2767113,164.2767113,164.2767113,164.2767113,164.2767113,164.2767113,164.2767113,164.2767113,164.2767113,164.2767113,,008,P021,2025_May_08_1239,ConditionRich,2021.2.3,59.932025097038114,
120.0,120.75,29,0.75,Stimuli/P009/things_fingerprint_05s.jpg,0,0.0,0.0,0,52,52,52,,,,,,,,,,,,,120.00849209999978,0.008492099999784841,None,167.52960489999987,167.52960489999987,167.52960489999987,167.52960489999987,167.52960489999987,167.52960489999987,167.52960489999987,167.52960489999987,167.52960489999987,167.52960489999987,,008,P021,2025_May_08_1239,ConditionRich,2021.2.3,59.932025097038114,
120.75,124.0,41,0.0,Stimuli/Blank.png,0,0.0,0.0,0,53,53,53,,,,,,,,,,,,,120.77416059999996,0.02416059999995923,None,168.28027959999963,168.28027959999963,168.28027959999963,168.28027959999963,168.28027959999963,168.28027959999963,168.28027959999963,168.28027959999963,168.28027959999963,168.28027959999963,,008,P021,2025_May_08_1239,ConditionRich,2021.2.3,59.932025097038114,
124.0,124.75,38,0.75,Stimuli/P009/things_roadsweeper_05s.jpg,0,0.0,0.0,0,54,54,54,,,,,,,,,,,,,124.00921569999991,0.00921569999991334,None,171.5164406999993,171.5164406999993,171.5164406999993,171.5164406999993,171.5164406999993,171.5164406999993,171.5164406999993,171.5164406999993,171.5164406999993,171.5164406999993,,008,P021,2025_May_08_1239,ConditionRich,2021.2.3,59.932025097038114,
124.75,128.0,41,0.0,Stimuli/Blank.png,0,0.0,0.0,0,55,55,55,,,,,,,,,,,,,124.7602009000002,0.010200900000199908,None,172.2671024000001,172.2671024000001,172.2671024000001,172.2671024000001,172.2671024000001,172.2671024000001,172.2671024000001,172.2671024000001,172.2671024000001,172.2671024000001,,008,P021,2025_May_08_1239,ConditionRich,2021.2.3,59.932025097038114,
128.0,128.75,25,0.75,Stimuli/P009/things_clothespin_05s.jpg,0,0.0,0.0,0,56,56,56,,,,,,,,,,,,,128.0124878000006,0.012487800000599236,None,175.52002360000006,175.52002360000006,175.52002360000006,175.52002360000006,175.52002360000006,175.52002360000006,175.52002360000006,175.52002360000006,175.52002360000006,175.52002360000006,,008,P021,2025_May_08_1239,ConditionRich,2021.2.3,59.932025097038114,
128.75,132.0,41,0.0,Stimuli/Blank.png,0,0.0,0.0,0,57,57,57,,,,,,,,,,,,,128.76373710000007,0.013737100000071223,None,176.27066149999973,176.27066149999973,176.27066149999973,176.27066149999973,176.27066149999973,176.27066149999973,176.27066149999973,176.27066149999973,176.27066149999973,176.27066149999973,,008,P021,2025_May_08_1239,ConditionRich,2021.2.3,59.932025097038114,
132.0,132.75,14,0.75,Stimuli/P009/sun_blaqxdebghixzyyw.jpg,0,0.0,0.0,0,58,58,58,,,,,,,,,,,,,131.99952889999986,-0.00047110000014072284,None,179.5068371999996,179.5068371999996,179.5068371999996,179.5068371999996,179.5068371999996,179.5068371999996,179.5068371999996,179.5068371999996,179.5068371999996,179.5068371999996,,008,P021,2025_May_08_1239,ConditionRich,2021.2.3,59.932025097038114,
132.75,136.0,41,0.0,Stimuli/Blank.png,0,0.0,0.0,0,59,59,59,,,,,,,,,,,,,132.74984910000057,-0.0001508999994257465,None,180.25751390000005,180.25751390000005,180.25751390000005,180.25751390000005,180.25751390000005,180.25751390000005,180.25751390000005,180.25751390000005,180.25751390000005,180.25751390000005,,008,P021,2025_May_08_1239,ConditionRich,2021.2.3,59.932025097038114,
136.0,136.75,27,0.75,Stimuli/P009/things_curling_iron_05s.jpg,1,0.0,0.75,0,60,60,60,,,,,,,,,,,,,136.00396790000013,0.00396790000013425,2,183.52705559999958,183.52705559999958,183.52705559999958,183.52705559999958,183.52705559999958,183.52705559999958,183.52705559999958,184.24440989999948,183.52705559999958,183.52705559999958,0.6140887000001385,008,P021,2025_May_08_1239,ConditionRich,2021.2.3,59.932025097038114,
136.75,140.0,41,0.0,Stimuli/Blank.png,0,0.0,0.0,0,61,61,61,,,,,,,,,,,,,136.7704315000001,0.02043150000008609,None,184.27771029999985,184.27771029999985,184.27771029999985,184.27771029999985,184.27771029999985,184.27771029999985,184.27771029999985,184.27771029999985,184.27771029999985,184.27771029999985,,008,P021,2025_May_08_1239,ConditionRich,2021.2.3,59.932025097038114,
140.0,140.75,1,0.75,Stimuli/P009/sun_abqdlumenyzawlme.jpg,0,0.0,0.0,0,62,62,62,,,,,,,,,,,,,140.0087867000002,0.008786700000200653,None,187.53059499999927,187.53059499999927,187.53059499999927,187.53059499999927,187.53059499999927,187.53059499999927,187.53059499999927,187.53059499999927,187.53059499999927,187.53059499999927,,008,P021,2025_May_08_1239,ConditionRich,2021.2.3,59.932025097038114,
140.75,144.0,41,0.0,Stimuli/Blank.png,1,0.25,1.0,0,63,63,63,,,,,,,,,,,,,140.77426639999976,0.024266399999760324,2,188.28126619999966,188.28126619999966,188.28126619999966,188.28126619999966,188.28126619999966,188.28126619999966,188.5147963999998,189.26544959999956,188.28126619999966,188.28126619999966,0.8328908000003139,008,P021,2025_May_08_1239,ConditionRich,2021.2.3,59.932025097038114,
144.0,144.75,35,0.75,Stimuli/P009/things_mushroom_05n.jpg,0,0.0,0.0,0,64,64,64,,,,,,,,,,,,,144.01092320000043,0.010923200000434008,None,191.51747549999982,191.51747549999982,191.51747549999982,191.51747549999982,191.51747549999982,191.51747549999982,191.51747549999982,191.51747549999982,191.51747549999982,191.51747549999982,,008,P021,2025_May_08_1239,ConditionRich,2021.2.3,59.932025097038114,
144.75,148.0,41,0.0,Stimuli/Blank.png,0,0.0,0.0,0,65,65,65,,,,,,,,,,,,,144.7604234999999,0.010423499999888008,None,192.26811409999937,192.26811409999937,192.26811409999937,192.26811409999937,192.26811409999937,192.26811409999937,192.26811409999937,192.26811409999937,192.26811409999937,192.26811409999937,,008,P021,2025_May_08_1239,ConditionRich,2021.2.3,59.932025097038114,
148.0,148.75,32,0.75,Stimuli/P009/things_hawk_05s.jpg,0,0.0,0.0,0,66,66,66,,,,,,,,,,,,,148.01378130000012,0.01378130000011879,None,195.52098399999977,195.52098399999977,195.52098399999977,195.52098399999977,195.52098399999977,195.52098399999977,195.52098399999977,195.52098399999977,195.52098399999977,195.52098399999977,,008,P021,2025_May_08_1239,ConditionRich,2021.2.3,59.932025097038114,
148.75,152.0,41,0.0,Stimuli/Blank.png,0,0.0,0.0,0,67,67,67,,,,,,,,,,,,,148.7647050000005,0.014705000000503787,None,196.27164749999974,196.27164749999974,196.27164749999974,196.27164749999974,196.27164749999974,196.27164749999974,196.27164749999974,196.27164749999974,196.27164749999974,196.27164749999974,,008,P021,2025_May_08_1239,ConditionRich,2021.2.3,59.932025097038114,
152.0,152.75,36,0.75,Stimuli/P009/things_pelican_05s.jpg,0,0.0,0.0,0,68,68,68,,,,,,,,,,,,,152.00025900000037,0.0002590000003692694,None,199.50784169999952,199.50784169999952,199.50784169999952,199.50784169999952,199.50784169999952,199.50784169999952,199.50784169999952,199.50784169999952,199.50784169999952,199.50784169999952,,008,P021,2025_May_08_1239,ConditionRich,2021.2.3,59.932025097038114,
152.75,156.0,41,0.0,Stimuli/Blank.png,0,0.0,0.0,0,69,69,69,,,,,,,,,,,,,152.7518774,0.0018774000000121305,None,200.2585156999994,200.2585156999994,200.2585156999994,200.2585156999994,200.2585156999994,200.2585156999994,200.2585156999994,200.2585156999994,200.2585156999994,200.2585156999994,,008,P021,2025_May_08_1239,ConditionRich,2021.2.3,59.932025097038114,
156.0,156.75,21,0.75,Stimuli/P009/things_boy_05s.jpg,0,0.0,0.0,0,70,70,70,,,,,,,,,,,,,156.00443280000036,0.004432800000358839,None,203.5113725000001,203.5113725000001,203.5113725000001,203.5113725000001,203.5113725000001,203.5113725000001,203.5113725000001,203.5113725000001,203.5113725000001,203.5113725000001,,008,P021,2025_May_08_1239,ConditionRich,2021.2.3,59.932025097038114,
156.75,160.0,41,0.0,Stimuli/Blank.png,0,0.0,0.0,0,71,71,71,,,,,,,,,,,,,156.75518610000017,0.00518610000017361,None,204.26201609999953,204.26201609999953,204.26201609999953,204.26201609999953,204.26201609999953,204.26201609999953,204.26201609999953,204.26201609999953,204.26201609999953,204.26201609999953,,008,P021,2025_May_08_1239,ConditionRich,2021.2.3,59.932025097038114,
160.0,160.75,5,0.75,Stimuli/P009/sun_akqvdmuauoxeafrj.jpg,0,0.0,0.0,0,72,72,72,,,,,,,,,,,,,160.00733200000013,0.007332000000133121,None,207.5149195999993,207.5149195999993,207.5149195999993,207.5149195999993,207.5149195999993,207.5149195999993,207.5149195999993,207.5149195999993,207.5149195999993,207.5149195999993,,008,P021,2025_May_08_1239,ConditionRich,2021.2.3,59.932025097038114,
160.75,164.0,41,0.0,Stimuli/Blank.png,0,0.0,0.0,0,73,73,73,,,,,,,,,,,,,160.75879160000022,0.008791600000222388,None,208.2655746999999,208.2655746999999,208.2655746999999,208.2655746999999,208.2655746999999,208.2655746999999,208.2655746999999,208.2655746999999,208.2655746999999,208.2655746999999,,008,P021,2025_May_08_1239,ConditionRich,2021.2.3,59.932025097038114,
164.0,164.75,12,0.75,Stimuli/P009/sun_birmwgkdtrlevcaf.jpg,0,0.0,0.0,0,74,74,74,,,,,,,,,,,,,164.01175630000034,0.01175630000034289,None,211.5351344999999,211.5351344999999,211.5351344999999,211.5351344999999,211.5351344999999,211.5351344999999,211.5351344999999,211.5351344999999,211.5351344999999,211.5351344999999,,008,P021,2025_May_08_1239,ConditionRich,2021.2.3,59.932025097038114,
164.75,168.0,41,0.0,Stimuli/Blank.png,0,0.0,0.0,0,75,75,75,,,,,,,,,,,,,164.77817820000018,0.028178200000184006,None,212.2857897999993,212.2857897999993,212.2857897999993,212.2857897999993,212.2857897999993,212.2857897999993,212.2857897999993,212.2857897999993,212.2857897999993,212.2857897999993,,008,P021,2025_May_08_1239,ConditionRich,2021.2.3,59.932025097038114,
168.0,168.75,34,0.75,Stimuli/P009/things_man_05s.jpg,1,0.0,0.75,0,76,76,76,,,,,,,,,,,,,168.01434700000027,0.014347000000270782,None,215.52198849999968,215.52198849999968,215.52198849999968,215.52198849999968,215.52198849999968,215.52198849999968,215.52198849999968,216.25597229999948,215.52198849999968,215.52198849999968,,008,P021,2025_May_08_1239,ConditionRich,2021.2.3,59.932025097038114,
168.75,172.0,41,0.0,Stimuli/Blank.png,0,0.0,0.0,0,77,77,77,,,,,,,,,,,,,168.76509850000002,0.015098500000021886,2,216.27265480000005,216.27265480000005,216.27265480000005,216.27265480000005,216.27265480000005,216.27265480000005,216.27265480000005,216.27265480000005,216.27265480000005,216.27265480000005,0.03369310000016412,008,P021,2025_May_08_1239,ConditionRich,2021.2.3,59.932025097038114,
172.0,172.75,6,0.75,Stimuli/P009/sun_amkrwcyvinmsylsz.jpg,0,0.0,0.0,0,78,78,78,,,,,,,,,,,,,172.0040452000003,0.004045200000291516,None,219.52553420000004,219.52553420000004,219.52553420000004,219.52553420000004,219.52553420000004,219.52553420000004,219.52553420000004,219.52553420000004,219.52553420000004,219.52553420000004,,008,P021,2025_May_08_1239,ConditionRich,2021.2.3,59.932025097038114,
172.75,176.0,41,0.0,Stimuli/Blank.png,0,0.0,0.0,0,79,79,79,,,,,,,,,,,,,172.7692833000001,0.01928330000009737,None,220.27619760000016,220.27619760000016,220.27619760000016,220.27619760000016,220.27619760000016,220.27619760000016,220.27619760000016,220.27619760000016,220.27619760000016,220.27619760000016,,008,P021,2025_May_08_1239,ConditionRich,2021.2.3,59.932025097038114,
176.0,176.75,33,0.75,Stimuli/P009/things_lizard_05n.jpg,0,0.0,0.0,0,80,80,80,,,,,,,,,,,,,176.00560469999982,0.005604699999821605,None,223.51238459999968,223.51238459999968,223.51238459999968,223.51238459999968,223.51238459999968,223.51238459999968,223.51238459999968,223.51238459999968,223.51238459999968,223.51238459999968,,008,P021,2025_May_08_1239,ConditionRich,2021.2.3,59.932025097038114,
176.75,180.0,41,0.0,Stimuli/Blank.png,0,0.0,0.0,0,81,81,81,,,,,,,,,,,,,176.75833930000044,0.008339300000443473,None,224.27973359999942,224.27973359999942,224.27973359999942,224.27973359999942,224.27973359999942,224.27973359999942,224.27973359999942,224.27973359999942,224.27973359999942,224.27973359999942,,008,P021,2025_May_08_1239,ConditionRich,2021.2.3,59.932025097038114,
180.0,196.0,0,0.0,Stimuli/Blank.png,1,5.0,5.75,0,82,82,82,,,,,,,,,,,,,180.02513210000052,0.02513210000051913,2,227.53257239999948,227.53257239999948,227.53257239999948,227.53257239999948,227.53257239999948,227.53257239999948,232.5203290999998,233.2710446000001,227.53257239999948,227.53257239999948,5.799001899999894,008,P021,2025_May_08_1239,ConditionRich,2021.2.3,59.932025097038114,
196.0,196.75,32,0.75,Stimuli/P009/things_hawk_05s.jpg,0,0.0,0.0,0,83,83,83,,,,,,,,,,,,,196.00615749999997,0.00615749999997206,None,243.51338510000005,243.51338510000005,243.51338510000005,243.51338510000005,243.51338510000005,243.51338510000005,243.51338510000005,243.51338510000005,243.51338510000005,243.51338510000005,,008,P021,2025_May_08_1239,ConditionRich,2021.2.3,59.932025097038114,
196.75,200.0,41,0.0,Stimuli/Blank.png,0,0.0,0.0,0,84,84,84,,,,,,,,,,,,,196.75844229999984,0.008442299999842362,None,244.28075660000013,244.28075660000013,244.28075660000013,244.28075660000013,244.28075660000013,244.28075660000013,244.28075660000013,244.28075660000013,244.28075660000013,244.28075660000013,,008,P021,2025_May_08_1239,ConditionRich,2021.2.3,59.932025097038114,
200.0,200.75,38,0.75,Stimuli/P009/things_roadsweeper_05s.jpg,0,0.0,0.0,0,85,85,85,,,,,,,,,,,,,200.02877119999994,0.02877119999993738,None,247.55029490000015,247.55029490000015,247.55029490000015,247.55029490000015,247.55029490000015,247.55029490000015,247.55029490000015,247.55029490000015,247.55029490000015,247.55029490000015,,008,P021,2025_May_08_1239,ConditionRich,2021.2.3,59.932025097038114,
200.75,204.0,41,0.0,Stimuli/Blank.png,1,1.25,2.0,0,86,86,86,,,,,,,,,,,,,200.7786283000005,0.028628300000491436,2,248.30097260000002,248.30097260000002,248.30097260000002,248.30097260000002,248.30097260000002,248.30097260000002,249.5353744999993,250.28605160000006,248.30097260000002,248.30097260000002,1.7021457999999257,008,P021,2025_May_08_1239,ConditionRich,2021.2.3,59.932025097038114,
204.0,204.75,35,0.75,Stimuli/P009/things_mushroom_05n.jpg,0,0.0,0.0,0,87,87,87,,,,,,,,,,,,,204.0296543000004,0.029654300000402145,None,251.53713939999943,251.53713939999943,251.53713939999943,251.53713939999943,251.53713939999943,251.53713939999943,251.53713939999943,251.53713939999943,251.53713939999943,251.53713939999943,,008,P021,2025_May_08_1239,ConditionRich,2021.2.3,59.932025097038114,
204.75,208.0,41,0.0,Stimuli/Blank.png,0,0.0,0.0,0,88,88,88,,,,,,,,,,,,,204.7650233000004,0.015023300000393647,None,252.28783269999985,252.28783269999985,252.28783269999985,252.28783269999985,252.28783269999985,252.28783269999985,252.28783269999985,252.28783269999985,252.28783269999985,252.28783269999985,,008,P021,2025_May_08_1239,ConditionRich,2021.2.3,59.932025097038114,
208.0,208.75,21,0.75,Stimuli/P009/things_boy_05s.jpg,0,0.0,0.0,0,89,89,89,,,,,,,,,,,,,208.01902570000038,0.01902570000038395,None,255.54068819999975,255.54068819999975,255.54068819999975,255.54068819999975,255.54068819999975,255.54068819999975,255.54068819999975,255.54068819999975,255.54068819999975,255.54068819999975,,008,P021,2025_May_08_1239,ConditionRich,2021.2.3,59.932025097038114,
208.75,212.0,41,0.0,Stimuli/Blank.png,0,0.0,0.0,0,90,90,90,,,,,,,,,,,,,208.7699775000001,0.01997750000009546,None,256.29135359999964,256.29135359999964,256.29135359999964,256.29135359999964,256.29135359999964,256.29135359999964,256.29135359999964,256.29135359999964,256.29135359999964,256.29135359999964,,008,P021,2025_May_08_1239,ConditionRich,2021.2.3,59.932025097038114,
212.0,212.75,3,0.75,Stimuli/P009/sun_aewgwsmvsgzleqhw.jpg,0,0.0,0.0,0,91,91,91,,,,,,,,,,,,,212.02071030000025,0.020710300000246207,None,259.5442303,259.5442303,259.5442303,259.5442303,259.5442303,259.5442303,259.5442303,259.5442303,259.5442303,259.5442303,,008,P021,2025_May_08_1239,ConditionRich,2021.2.3,59.932025097038114,
212.75,216.0,41,0.0,Stimuli/Blank.png,1,0.25,1.0,0,92,92,92,,,,,,,,,,,,,212.77056749999974,0.020567499999742722,2,260.2782023,260.2782023,260.2782023,260.2782023,260.2782023,260.2782023,260.5117083999994,261.26245560000007,260.2782023,260.2782023,0.7249615000000631,008,P021,2025_May_08_1239,ConditionRich,2021.2.3,59.932025097038114,
216.0,216.75,28,0.75,Stimuli/P009/things_face_05s.jpg,0,0.0,0.0,0,93,93,93,,,,,,,,,,,,,216.0082381000002,0.008238100000198756,None,263.51439669999945,263.51439669999945,263.51439669999945,263.51439669999945,263.51439669999945,263.51439669999945,263.51439669999945,263.51439669999945,263.51439669999945,263.51439669999945,,008,P021,2025_May_08_1239,ConditionRich,2021.2.3,59.932025097038114,
216.75,220.0,41,0.0,Stimuli/Blank.png,0,0.0,0.0,0,94,94,94,,,,,,,,,,,,,216.75770720000037,0.007707200000368175,None,264.2650507999997,264.2650507999997,264.2650507999997,264.2650507999997,264.2650507999997,264.2650507999997,264.2650507999997,264.2650507999997,264.2650507999997,264.2650507999997,,008,P021,2025_May_08_1239,ConditionRich,2021.2.3,59.932025097038114,
220.0,220.75,34,0.75,Stimuli/P009/things_man_05s.jpg,0,0.0,0.0,0,95,95,95,,,,,,,,,,,,,220.0113154999999,0.011315499999909662,None,267.5179312,267.5179312,267.5179312,267.5179312,267.5179312,267.5179312,267.5179312,267.5179312,267.5179312,267.5179312,,008,P021,2025_May_08_1239,ConditionRich,2021.2.3,59.932025097038114,
220.75,224.0,41,0.0,Stimuli/Blank.png,0,0.0,0.0,0,96,96,96,,,,,,,,,,,,,220.76555970000027,0.015559700000267185,None,268.2852761999993,268.2852761999993,268.2852761999993,268.2852761999993,268.2852761999993,268.2852761999993,268.2852761999993,268.2852761999993,268.2852761999993,268.2852761999993,,008,P021,2025_May_08_1239,ConditionRich,2021.2.3,59.932025097038114,
224.0,224.75,1,0.75,Stimuli/P009/sun_abqdlumenyzawlme.jpg,0,0.0,0.0,0,97,97,97,,,,,,,,,,,,,224.0138594,0.013859400000001187,None,271.52146209999955,271.52146209999955,271.52146209999955,271.52146209999955,271.52146209999955,271.52146209999955,271.52146209999955,271.52146209999955,271.52146209999955,271.52146209999955,,008,P021,2025_May_08_1239,ConditionRich,2021.2.3,59.932025097038114,
224.75,228.0,41,0.0,Stimuli/Blank.png,1,0.25,1.0,0,98,98,98,,,,,,,,,,,,,224.7651882,0.01518820000001142,2,272.2721297999997,272.2721297999997,272.2721297999997,272.2721297999997,272.2721297999997,272.2721297999997,272.5056765999998,273.25633449999987,272.2721297999997,272.2721297999997,0.5965285000002041,008,P021,2025_May_08_1239,ConditionRich,2021.2.3,59.932025097038114,
228.0,228.75,40,0.75,Stimuli/P009/things_woman_05s.jpg,0,0.0,0.0,0,99,99,99,,,,,,,,,,,,,228.00107709999975,0.0010770999997475883,None,275.50829559999966,275.50829559999966,275.50829559999966,275.50829559999966,275.50829559999966,275.50829559999966,275.50829559999966,275.50829559999966,275.50829559999966,275.50829559999966,,008,P021,2025_May_08_1239,ConditionRich,2021.2.3,59.932025097038114,
228.75,232.0,41,0.0,Stimuli/Blank.png,0,0.0,0.0,0,100,100,100,,,,,,,,,,,,,228.7544441,0.004444100000000617,None,276.27568809999957,276.27568809999957,276.27568809999957,276.27568809999957,276.27568809999957,276.27568809999957,276.27568809999957,276.27568809999957,276.27568809999957,276.27568809999957,,008,P021,2025_May_08_1239,ConditionRich,2021.2.3,59.932025097038114,
232.0,232.75,18,0.75,Stimuli/P009/sun_bwjdahsxcqepqqbm.jpg,0,0.0,0.0,0,101,101,101,,,,,,,,,,,,,232.02390300000025,0.02390300000024581,None,279.54523919999974,279.54523919999974,279.54523919999974,279.54523919999974,279.54523919999974,279.54523919999974,279.54523919999974,279.54523919999974,279.54523919999974,279.54523919999974,,008,P021,2025_May_08_1239,ConditionRich,2021.2.3,59.932025097038114,
232.75,236.0,41,0.0,Stimuli/Blank.png,0,0.0,0.0,0,102,102,102,,,,,,,,,,,,,232.77232950000052,0.022329500000523694,None,280.27920149999954,280.27920149999954,280.27920149999954,280.27920149999954,280.27920149999954,280.27920149999954,280.27920149999954,280.27920149999954,280.27920149999954,280.27920149999954,,008,P021,2025_May_08_1239,ConditionRich,2021.2.3,59.932025097038114,
236.0,236.75,39,0.75,Stimuli/P009/things_tiara_05s.jpg,0,0.0,0.0,0,103,103,103,,,,,,,,,,,,,236.008554,0.008554000000003725,None,283.5154045999998,283.5154045999998,283.5154045999998,283.5154045999998,283.5154045999998,283.5154045999998,283.5154045999998,283.5154045999998,283.5154045999998,283.5154045999998,,008,P021,2025_May_08_1239,ConditionRich,2021.2.3,59.932025097038114,
236.75,240.0,41,0.0,Stimuli/Blank.png,0,0.0,0.0,0,104,104,104,,,,,,,,,,,,,236.75927670000056,0.009276700000555138,None,284.26607179999974,284.26607179999974,284.26607179999974,284.26607179999974,284.26607179999974,284.26607179999974,284.26607179999974,284.26607179999974,284.26607179999974,284.26607179999974,,008,P021,2025_May_08_1239,ConditionRich,2021.2.3,59.932025097038114,
240.0,240.75,24,0.75,Stimuli/P009/things_cigar_05n.jpg,0,0.0,0.0,0,105,105,105,,,,,,,,,,,,,240.0135811,0.013581100000010338,None,287.5356176999994,287.5356176999994,287.5356176999994,287.5356176999994,287.5356176999994,287.5356176999994,287.5356176999994,287.5356176999994,287.5356176999994,287.5356176999994,,008,P021,2025_May_08_1239,ConditionRich,2021.2.3,59.932025097038114,
240.75,244.0,41,0.0,Stimuli/Blank.png,0,0.0,0.0,0,106,106,106,,,,,,,,,,,,,240.77891199999976,0.028911999999763793,None,288.2862715000001,288.2862715000001,288.2862715000001,288.2862715000001,288.2862715000001,288.2862715000001,288.2862715000001,288.2862715000001,288.2862715000001,288.2862715000001,,008,P021,2025_May_08_1239,ConditionRich,2021.2.3,59.932025097038114,
244.0,244.75,6,0.75,Stimuli/P009/sun_amkrwcyvinmsylsz.jpg,0,0.0,0.0,0,107,107,107,,,,,,,,,,,,,244.01506810000046,0.015068100000462437,None,291.5224645999997,291.5224645999997,291.5224645999997,291.5224645999997,291.5224645999997,291.5224645999997,291.5224645999997,291.5224645999997,291.5224645999997,291.5224645999997,,008,P021,2025_May_08_1239,ConditionRich,2021.2.3,59.932025097038114,
244.75,248.0,41,0.0,Stimuli/Blank.png,0,0.0,0.0,0,108,108,108,,,,,,,,,,,,,244.74879510000028,-0.00120489999972051,None,292.2564160000002,292.2564160000002,292.2564160000002,292.2564160000002,292.2564160000002,292.2564160000002,292.2564160000002,292.2564160000002,292.2564160000002,292.2564160000002,,008,P021,2025_May_08_1239,ConditionRich,2021.2.3,59.932025097038114,
248.0,248.75,36,0.75,Stimuli/P009/things_pelican_05s.jpg,0,0.0,0.0,0,109,109,109,,,,,,,,,,,,,248.00580910000008,0.005809100000078615,None,295.5260443999996,295.5260443999996,295.5260443999996,295.5260443999996,295.5260443999996,295.5260443999996,295.5260443999996,295.5260443999996,295.5260443999996,295.5260443999996,,008,P021,2025_May_08_1239,ConditionRich,2021.2.3,59.932025097038114,
248.75,252.0,41,0.0,Stimuli/Blank.png,0,0.0,0.0,0,110,110,110,,,,,,,,,,,,,248.76989330000015,0.019893300000148884,None,296.27666580000005,296.27666580000005,296.27666580000005,296.27666580000005,296.27666580000005,296.27666580000005,296.27666580000005,296.27666580000005,296.27666580000005,296.27666580000005,,008,P021,2025_May_08_1239,ConditionRich,2021.2.3,59.932025097038114,
252.0,252.75,11,0.75,Stimuli/P009/sun_bfyvfqiimvdaxlqn.jpg,0,0.0,0.0,0,111,111,111,,,,,,,,,,,,,252.0083850000001,0.008385000000089349,None,299.52954559999944,299.52954559999944,299.52954559999944,299.52954559999944,299.52954559999944,299.52954559999944,299.52954559999944,299.52954559999944,299.52954559999944,299.52954559999944,,008,P021,2025_May_08_1239,ConditionRich,2021.2.3,59.932025097038114,
252.75,256.0,41,0.0,Stimuli/Blank.png,0,0.0,0.0,0,112,112,112,,,,,,,,,,,,,252.77329250000003,0.02329250000002503,None,300.2801615999997,300.2801615999997,300.2801615999997,300.2801615999997,300.2801615999997,300.2801615999997,300.2801615999997,300.2801615999997,300.2801615999997,300.2801615999997,,008,P021,2025_May_08_1239,ConditionRich,2021.2.3,59.932025097038114,
256.0,256.75,12,0.75,Stimuli/P009/sun_birmwgkdtrlevcaf.jpg,0,0.0,0.0,0,113,113,113,,,,,,,,,,,,,256.0094393999998,0.009439399999791931,None,303.5164015999999,303.5164015999999,303.5164015999999,303.5164015999999,303.5164015999999,303.5164015999999,303.5164015999999,303.5164015999999,303.5164015999999,303.5164015999999,,008,P021,2025_May_08_1239,ConditionRich,2021.2.3,59.932025097038114,
256.75,260.0,41,0.0,Stimuli/Blank.png,1,1.25,2.0,0,114,114,114,,,,,,,,,,,,,256.76022439999997,0.010224399999970046,None,304.2670500999993,304.2670500999993,304.2670500999993,304.2670500999993,304.2670500999993,304.2670500999993,305.50154959999963,306.2521825999993,304.2670500999993,304.2670500999993,,008,P021,2025_May_08_1239,ConditionRich,2021.2.3,59.932025097038114,
260.0,260.75,25,0.75,Stimuli/P009/things_clothespin_05s.jpg,1,0.0,0.75,0,115,115,115,,,,,,,,,,,,,260.0122897000001,0.012289700000110315,None,307.5199322999997,307.5199322999997,307.5199322999997,307.5199322999997,307.5199322999997,307.5199322999997,307.5199322999997,308.25392099999954,307.5199322999997,307.5199322999997,,008,P021,2025_May_08_1239,ConditionRich,2021.2.3,59.932025097038114,
260.75,264.0,41,0.0,Stimuli/Blank.png,0,0.0,0.0,0,116,116,116,,,,,,,,,,,,,260.7633990000004,0.013399000000390515,None,308.2705999,308.2705999,308.2705999,308.2705999,308.2705999,308.2705999,308.2705999,308.2705999,308.2705999,308.2705999,,008,P021,2025_May_08_1239,ConditionRich,2021.2.3,59.932025097038114,
264.0,264.75,16,0.75,Stimuli/P009/sun_bqpyqljaflidcauh.jpg,0,0.0,0.0,0,117,117,117,,,,,,,,,,,,,263.9993347999998,-0.0006652000001849956,None,311.50676549999935,311.50676549999935,311.50676549999935,311.50676549999935,311.50676549999935,311.50676549999935,311.50676549999935,311.50676549999935,311.50676549999935,311.50676549999935,,008,P021,2025_May_08_1239,ConditionRich,2021.2.3,59.932025097038114,
264.75,268.0,41,0.0,Stimuli/Blank.png,0,0.0,0.0,0,118,118,118,,,,,,,,,,,,,264.74979070000063,-0.00020929999936925014,None,312.2574520999997,312.2574520999997,312.2574520999997,312.2574520999997,312.2574520999997,312.2574520999997,312.2574520999997,312.2574520999997,312.2574520999997,312.2574520999997,,008,P021,2025_May_08_1239,ConditionRich,2021.2.3,59.932025097038114,
268.0,268.75,4,0.75,Stimuli/P009/sun_afkzdukwewwzqtmr.jpg,0,0.0,0.0,0,119,119,119,,,,,,,,,,,,,268.00425780000023,0.004257800000232237,None,315.52698109999983,315.52698109999983,315.52698109999983,315.52698109999983,315.52698109999983,315.52698109999983,315.52698109999983,315.52698109999983,315.52698109999983,315.52698109999983,,008,P021,2025_May_08_1239,ConditionRich,2021.2.3,59.932025097038114,
268.75,272.0,41,0.0,Stimuli/Blank.png,0,0.0,0.0,0,120,120,120,,,,,,,,,,,,,268.7705612,0.020561199999974633,None,316.27766879999945,316.27766879999945,316.27766879999945,316.27766879999945,316.27766879999945,316.27766879999945,316.27766879999945,316.27766879999945,316.27766879999945,316.27766879999945,,008,P021,2025_May_08_1239,ConditionRich,2021.2.3,59.932025097038114,
272.0,272.75,10,0.75,Stimuli/P009/sun_bdkttewvyfdarikm.jpg,0,0.0,0.0,0,121,121,121,,,,,,,,,,,,,272.0087531999998,0.008753199999773642,None,319.53054239999983,319.53054239999983,319.53054239999983,319.53054239999983,319.53054239999983,319.53054239999983,319.53054239999983,319.53054239999983,319.53054239999983,319.53054239999983,,008,P021,2025_May_08_1239,ConditionRich,2021.2.3,59.932025097038114,
272.75,276.0,41,0.0,Stimuli/Blank.png,0,0.0,0.0,0,122,122,122,,,,,,,,,,,,,272.7743586000006,0.024358600000596198,None,320.28120339999987,320.28120339999987,320.28120339999987,320.28120339999987,320.28120339999987,320.28120339999987,320.28120339999987,320.28120339999987,320.28120339999987,320.28120339999987,,008,P021,2025_May_08_1239,ConditionRich,2021.2.3,59.932025097038114,
276.0,292.0,0,0.0,Stimuli/Blank.png,1,1.0,1.75,0,123,123,123,,,,,,,,,,,,,276.00987369999984,0.009873699999843666,2,323.5173969999996,323.5173969999996,323.5173969999996,323.5173969999996,323.5173969999996,323.5173969999996,324.5015760999995,325.25239689999944,323.5173969999996,323.5173969999996,1.5439452000000529,008,P021,2025_May_08_1239,ConditionRich,2021.2.3,59.932025097038114,
292.0,292.75,19,0.75,Stimuli/P009/sun_bwvfnogmotsvhofs.jpg,0,0.0,0.0,0,124,124,124,,,,,,,,,,,,,292.00913670000045,0.009136700000453857,None,339.5315750999998,339.5315750999998,339.5315750999998,339.5315750999998,339.5315750999998,339.5315750999998,339.5315750999998,339.5315750999998,339.5315750999998,339.5315750999998,,008,P021,2025_May_08_1239,ConditionRich,2021.2.3,59.932025097038114,
292.75,296.0,41,0.0,Stimuli/Blank.png,1,2.25,3.0,0,125,125,125,,,,,,,,,,,,,292.77563499999997,0.025634999999965657,2,340.28220299999975,340.28220299999975,340.28220299999975,340.28220299999975,340.28220299999975,340.28220299999975,342.5175169999993,343.26823629999944,340.28220299999975,340.28220299999975,2.882070399999975,008,P021,2025_May_08_1239,ConditionRich,2021.2.3,59.932025097038114,
296.0,296.75,30,0.75,Stimuli/P009/things_fire_05s.jpg,0,0.0,0.0,0,126,126,126,,,,,,,,,,,,,296.0111182999999,0.011118299999907322,None,343.5183985999993,343.5183985999993,343.5183985999993,343.5183985999993,343.5183985999993,343.5183985999993,343.5183985999993,343.5183985999993,343.5183985999993,343.5183985999993,,008,P021,2025_May_08_1239,ConditionRich,2021.2.3,59.932025097038114,
296.75,300.0,41,0.0,Stimuli/Blank.png,1,2.25,3.0,0,127,127,127,,,,,,,,,,,,,296.76356140000007,0.013561400000071444,None,344.28577439999935,344.28577439999935,344.28577439999935,344.28577439999935,344.28577439999935,344.28577439999935,346.52108859999953,347.27172789999986,344.28577439999935,344.28577439999935,,008,P021,2025_May_08_1239,ConditionRich,2021.2.3,59.932025097038114,
300.0,300.75,14,0.75,Stimuli/P009/sun_blaqxdebghixzyyw.jpg,0,0.0,0.0,0,128,128,128,,,,,,,,,,,,,300.0151119000002,0.01511190000019269,None,347.52193369999986,347.52193369999986,347.52193369999986,347.52193369999986,347.52193369999986,347.52193369999986,347.52193369999986,347.52193369999986,347.52193369999986,347.52193369999986,,008,P021,2025_May_08_1239,ConditionRich,2021.2.3,59.932025097038114,
300.75,304.0,41,0.0,Stimuli/Blank.png,0,0.0,0.0,0,129,129,129,,,,,,,,,,,,,300.7490398,-0.0009602000000086264,None,348.25593389999995,348.25593389999995,348.25593389999995,348.25593389999995,348.25593389999995,348.25593389999995,348.25593389999995,348.25593389999995,348.25593389999995,348.25593389999995,,008,P021,2025_May_08_1239,ConditionRich,2021.2.3,59.932025097038114,
304.0,304.75,17,0.75,Stimuli/P009/sun_brkrfjpyfglmigkk.jpg,0,0.0,0.0,0,130,130,130,,,,,,,,,,,,,304.003369,0.0033690000000206055,None,351.52551700000004,351.52551700000004,351.52551700000004,351.52551700000004,351.52551700000004,351.52551700000004,351.52551700000004,351.52551700000004,351.52551700000004,351.52551700000004,,008,P021,2025_May_08_1239,ConditionRich,2021.2.3,59.932025097038114,
304.75,308.0,41,0.0,Stimuli/Blank.png,0,0.0,0.0,0,131,131,131,,,,,,,,,,,,,304.76924599999984,0.019245999999839114,None,352.27615400000013,352.27615400000013,352.27615400000013,352.27615400000013,352.27615400000013,352.27615400000013,352.27615400000013,352.27615400000013,352.27615400000013,352.27615400000013,,008,P021,2025_May_08_1239,ConditionRich,2021.2.3,59.932025097038114,
308.0,308.75,33,0.75,Stimuli/P009/things_lizard_05n.jpg,0,0.0,0.0,0,132,132,132,,,,,,,,,,,,,308.00563130000046,0.005631300000459305,None,355.5290228999993,355.5290228999993,355.5290228999993,355.5290228999993,355.5290228999993,355.5290228999993,355.5290228999993,355.5290228999993,355.5290228999993,355.5290228999993,,008,P021,2025_May_08_1239,ConditionRich,2021.2.3,59.932025097038114,
308.75,312.0,41,0.0,Stimuli/Blank.png,0,0.0,0.0,0,133,133,133,,,,,,,,,,,,,308.7731494999998,0.023149499999817635,None,356.27968449999935,356.27968449999935,356.27968449999935,356.27968449999935,356.27968449999935,356.27968449999935,356.27968449999935,356.27968449999935,356.27968449999935,356.27968449999935,,008,P021,2025_May_08_1239,ConditionRich,2021.2.3,59.932025097038114,
312.0,312.75,26,0.75,Stimuli/P009/things_cookie_sheet_05s.jpg,0,0.0,0.0,0,134,134,134,,,,,,,,,,,,,312.0085122999999,0.008512299999893003,None,359.51587029999973,359.51587029999973,359.51587029999973,359.51587029999973,359.51587029999973,359.51587029999973,359.51587029999973,359.51587029999973,359.51587029999973,359.51587029999973,,008,P021,2025_May_08_1239,ConditionRich,2021.2.3,59.932025097038114,
312.75,316.0,41,0.0,Stimuli/Blank.png,1,2.25,3.0,0,135,135,135,,,,,,,,,,,,,312.7590248000006,0.009024800000588584,2,360.2665409000001,360.2665409000001,360.2665409000001,360.2665409000001,360.2665409000001,360.2665409000001,362.5018483999993,363.25250159999996,360.2665409000001,360.2665409000001,2.879013099999611,008,P021,2025_May_08_1239,ConditionRich,2021.2.3,59.932025097038114,
316.0,316.75,31,0.75,Stimuli/P009/things_girl_05s.jpg,0,0.0,0.0,0,136,136,136,,,,,,,,,,,,,316.01418530000046,0.01418530000046303,None,363.5360974999994,363.5360974999994,363.5360974999994,363.5360974999994,363.5360974999994,363.5360974999994,363.5360974999994,363.5360974999994,363.5360974999994,363.5360974999994,,008,P021,2025_May_08_1239,ConditionRich,2021.2.3,59.932025097038114,
316.75,320.0,41,0.0,Stimuli/Blank.png,0,0.0,0.0,0,137,137,137,,,,,,,,,,,,,316.77975680000054,0.02975680000054126,None,364.2867497999996,364.2867497999996,364.2867497999996,364.2867497999996,364.2867497999996,364.2867497999996,364.2867497999996,364.2867497999996,364.2867497999996,364.2867497999996,,008,P021,2025_May_08_1239,ConditionRich,2021.2.3,59.932025097038114,
320.0,320.75,7,0.75,Stimuli/P009/sun_apiogxmvvzfmtsmj.jpg,1,0.0,0.75,0,138,138,138,,,,,,,,,,,,,319.9993647000001,-0.0006352999998853193,None,367.5062530999994,367.5062530999994,367.5062530999994,367.5062530999994,367.5062530999994,367.5062530999994,367.5062530999994,368.2402353999996,367.5062530999994,367.5062530999994,,008,P021,2025_May_08_1239,ConditionRich,2021.2.3,59.932025097038114,
320.75,324.0,41,0.0,Stimuli/Blank.png,0,0.0,0.0,0,139,139,139,,,,,,,,,,,,,320.74925129999974,-0.0007487000002583954,None,368.2569313999993,368.2569313999993,368.2569313999993,368.2569313999993,368.2569313999993,368.2569313999993,368.2569313999993,368.2569313999993,368.2569313999993,368.2569313999993,,008,P021,2025_May_08_1239,ConditionRich,2021.2.3,59.932025097038114,
324.0,324.75,8,0.75,Stimuli/P009/sun_batcnoizlkeiqdtx.jpg,0,0.0,0.0,0,140,140,140,,,,,,,,,,,,,324.00291690000086,0.002916900000855094,None,371.5098016999991,371.5098016999991,371.5098016999991,371.5098016999991,371.5098016999991,371.5098016999991,371.5098016999991,371.5098016999991,371.5098016999991,371.5098016999991,,008,P021,2025_May_08_1239,ConditionRich,2021.2.3,59.932025097038114,
324.75,328.0,41,0.0,Stimuli/Blank.png,0,0.0,0.0,0,141,141,141,,,,,,,,,,,,,324.75321910000093,0.0032191000009333948,None,372.2604688000001,372.2604688000001,372.2604688000001,372.2604688000001,372.2604688000001,372.2604688000001,372.2604688000001,372.2604688000001,372.2604688000001,372.2604688000001,,008,P021,2025_May_08_1239,ConditionRich,2021.2.3,59.932025097038114,
328.0,328.75,13,0.75,Stimuli/P009/sun_bjimvgwadfodioes.jpg,0,0.0,0.0,0,142,142,142,,,,,,,,,,,,,328.00853409999945,0.008534099999451428,None,375.53002110000034,375.53002110000034,375.53002110000034,375.53002110000034,375.53002110000034,375.53002110000034,375.53002110000034,375.53002110000034,375.53002110000034,375.53002110000034,,008,P021,2025_May_08_1239,ConditionRich,2021.2.3,59.932025097038114,
328.75,332.0,41,0.0,Stimuli/Blank.png,0,0.0,0.0,0,143,143,143,,,,,,,,,,,,,328.77383630000077,0.02383630000076664,None,376.2806945000002,376.2806945000002,376.2806945000002,376.2806945000002,376.2806945000002,376.2806945000002,376.2806945000002,376.2806945000002,376.2806945000002,376.2806945000002,,008,P021,2025_May_08_1239,ConditionRich,2021.2.3,59.932025097038114,
332.0,332.75,5,0.75,Stimuli/P009/sun_akqvdmuauoxeafrj.jpg,0,0.0,0.0,0,144,144,144,,,,,,,,,,,,,332.0098428000001,0.009842800000114948,None,379.51687330000004,379.51687330000004,379.51687330000004,379.51687330000004,379.51687330000004,379.51687330000004,379.51687330000004,379.51687330000004,379.51687330000004,379.51687330000004,,008,P021,2025_May_08_1239,ConditionRich,2021.2.3,59.932025097038114,
332.75,336.0,41,0.0,Stimuli/Blank.png,0,0.0,0.0,0,145,145,145,,,,,,,,,,,,,332.76084269999956,0.010842699999557226,None,380.2675577,380.2675577,380.2675577,380.2675577,380.2675577,380.2675577,380.2675577,380.2675577,380.2675577,380.2675577,,008,P021,2025_May_08_1239,ConditionRich,2021.2.3,59.932025097038114,
336.0,336.75,27,0.75,Stimuli/P009/things_curling_iron_05s.jpg,0,0.0,0.0,0,146,146,146,,,,,,,,,,,,,336.01395910000065,0.013959100000647595,None,383.52042100000017,383.52042100000017,383.52042100000017,383.52042100000017,383.52042100000017,383.52042100000017,383.52042100000017,383.52042100000017,383.52042100000017,383.52042100000017,,008,P021,2025_May_08_1239,ConditionRich,2021.2.3,59.932025097038114,
336.75,340.0,41,0.0,Stimuli/Blank.png,0,0.0,0.0,0,147,147,147,,,,,,,,,,,,,336.76410469999973,0.014104699999734294,None,384.2710789999992,384.2710789999992,384.2710789999992,384.2710789999992,384.2710789999992,384.2710789999992,384.2710789999992,384.2710789999992,384.2710789999992,384.2710789999992,,008,P021,2025_May_08_1239,ConditionRich,2021.2.3,59.932025097038114,
340.0,340.75,22,0.75,Stimuli/P009/things_butterfly_05s.jpg,0,0.0,0.0,0,148,148,148,,,,,,,,,,,,,339.9997621000002,-0.0002378999997745268,None,387.5072639,387.5072639,387.5072639,387.5072639,387.5072639,387.5072639,387.5072639,387.5072639,387.5072639,387.5072639,,008,P021,2025_May_08_1239,ConditionRich,2021.2.3,59.932025097038114,
340.75,344.0,41,0.0,Stimuli/Blank.png,0,0.0,0.0,0,149,149,149,,,,,,,,,,,,,340.75067619999936,0.0006761999993614154,None,388.2579452,388.2579452,388.2579452,388.2579452,388.2579452,388.2579452,388.2579452,388.2579452,388.2579452,388.2579452,,008,P021,2025_May_08_1239,ConditionRich,2021.2.3,59.932025097038114,
344.0,344.75,15,0.75,Stimuli/P009/sun_boryivbddrnarrbo.jpg,0,0.0,0.0,0,150,150,150,,,,,,,,,,,,,344.00419619999957,0.004196199999569217,None,391.5109862999989,391.5109862999989,391.5109862999989,391.5109862999989,391.5109862999989,391.5109862999989,391.5109862999989,391.5109862999989,391.5109862999989,391.5109862999989,,008,P021,2025_May_08_1239,ConditionRich,2021.2.3,59.932025097038114,
344.75,348.0,41,0.0,Stimuli/Blank.png,0,0.0,0.0,0,151,151,151,,,,,,,,,,,,,344.7538033000001,0.0038033000000723405,None,392.26142720000007,392.26142720000007,392.26142720000007,392.26142720000007,392.26142720000007,392.26142720000007,392.26142720000007,392.26142720000007,392.26142720000007,392.26142720000007,,008,P021,2025_May_08_1239,ConditionRich,2021.2.3,59.932025097038114,
348.0,348.75,2,0.75,Stimuli/P009/sun_acvloibbxiqpiwnv.jpg,0,0.0,0.0,0,152,152,152,,,,,,,,,,,,,348.00731240000096,0.007312400000955677,None,395.51433799999995,395.51433799999995,395.51433799999995,395.51433799999995,395.51433799999995,395.51433799999995,395.51433799999995,395.51433799999995,395.51433799999995,395.51433799999995,,008,P021,2025_May_08_1239,ConditionRich,2021.2.3,59.932025097038114,
348.75,352.0,41,0.0,Stimuli/Blank.png,1,0.25,1.0,0,153,153,153,,,,,,,,,,,,,348.7590161999997,0.009016199999678065,2,396.2650210999991,396.2650210999991,396.2650210999991,396.2650210999991,396.2650210999991,396.2650210999991,396.4985482000002,397.24929339999926,396.2650210999991,396.2650210999991,1.791423799999393,008,P021,2025_May_08_1239,ConditionRich,2021.2.3,59.932025097038114,
352.0,352.75,29,0.75,Stimuli/P009/things_fingerprint_05s.jpg,0,0.0,0.0,0,154,154,154,,,,,,,,,,,,,352.0134730000009,0.013473000000885804,None,399.53459399999974,399.53459399999974,399.53459399999974,399.53459399999974,399.53459399999974,399.53459399999974,399.53459399999974,399.53459399999974,399.53459399999974,399.53459399999974,,008,P021,2025_May_08_1239,ConditionRich,2021.2.3,59.932025097038114,
352.75,356.0,41,0.0,Stimuli/Blank.png,0,0.0,0.0,0,155,155,155,,,,,,,,,,,,,352.7779888999994,0.02798889999940002,None,400.28523210000003,400.28523210000003,400.28523210000003,400.28523210000003,400.28523210000003,400.28523210000003,400.28523210000003,400.28523210000003,400.28523210000003,400.28523210000003,,008,P021,2025_May_08_1239,ConditionRich,2021.2.3,59.932025097038114,
356.0,356.75,20,0.75,Stimuli/P009/sun_ddsiwinthvyejghq.jpg,0,0.0,0.0,0,156,156,156,,,,,,,,,,,,,356.01515199999994,0.015151999999943655,None,403.5214102,403.5214102,403.5214102,403.5214102,403.5214102,403.5214102,403.5214102,403.5214102,403.5214102,403.5214102,,008,P021,2025_May_08_1239,ConditionRich,2021.2.3,59.932025097038114,
356.75,360.0,41,0.0,Stimuli/Blank.png,0,0.0,0.0,0,157,157,157,,,,,,,,,,,,,356.7486936000005,-0.0013063999995210906,None,404.2553947999995,404.2553947999995,404.2553947999995,404.2553947999995,404.2553947999995,404.2553947999995,404.2553947999995,404.2553947999995,404.2553947999995,404.2553947999995,,008,P021,2025_May_08_1239,ConditionRich,2021.2.3,59.932025097038114,
360.0,360.75,9,0.75,Stimuli/P009/sun_bdjkvwqqqycuixtc.jpg,0,0.0,0.0,0,158,158,158,,,,,,,,,,,,,360.0005860000001,0.000586000000112108,None,407.50827540000046,407.50827540000046,407.50827540000046,407.50827540000046,407.50827540000046,407.50827540000046,407.50827540000046,407.50827540000046,407.50827540000046,407.50827540000046,,008,P021,2025_May_08_1239,ConditionRich,2021.2.3,59.932025097038114,
360.75,364.0,41,0.0,Stimuli/Blank.png,0,0.0,0.0,0,159,159,159,,,,,,,,,,,,,360.75399300000026,0.003993000000264146,None,408.27563329999884,408.27563329999884,408.27563329999884,408.27563329999884,408.27563329999884,408.27563329999884,408.27563329999884,408.27563329999884,408.27563329999884,408.27563329999884,,008,P021,2025_May_08_1239,ConditionRich,2021.2.3,59.932025097038114,
364.0,364.75,23,0.75,Stimuli/P009/things_charger_05s.jpg,0,0.0,0.0,0,160,160,160,,,,,,,,,,,,,364.0224130000006,0.022413000000597094,None,411.54519340000024,411.54519340000024,411.54519340000024,411.54519340000024,411.54519340000024,411.54519340000024,411.54519340000024,411.54519340000024,411.54519340000024,411.54519340000024,,008,P021,2025_May_08_1239,ConditionRich,2021.2.3,59.932025097038114,
364.75,368.0,41,0.0,Stimuli/Blank.png,0,0.0,0.0,0,161,161,161,,,,,,,,,,,,,364.7722642000008,0.02226420000079088,None,412.2791998999992,412.2791998999992,412.2791998999992,412.2791998999992,412.2791998999992,412.2791998999992,412.2791998999992,412.2791998999992,412.2791998999992,412.2791998999992,,008,P021,2025_May_08_1239,ConditionRich,2021.2.3,59.932025097038114,
368.0,368.75,37,0.75,Stimuli/P009/things_pug_05s.jpg,0,0.0,0.0,0,162,162,162,,,,,,,,,,,,,368.00917970000046,0.009179700000458979,None,415.5153548999997,415.5153548999997,415.5153548999997,415.5153548999997,415.5153548999997,415.5153548999997,415.5153548999997,415.5153548999997,415.5153548999997,415.5153548999997,,008,P021,2025_May_08_1239,ConditionRich,2021.2.3,59.932025097038114,
368.75,372.0,41,0.0,Stimuli/Blank.png,0,0.0,0.0,0,163,163,163,,,,,,,,,,,,,368.7590464999994,0.00904649999938556,None,416.2660176999989,416.2660176999989,416.2660176999989,416.2660176999989,416.2660176999989,416.2660176999989,416.2660176999989,416.2660176999989,416.2660176999989,416.2660176999989,,008,P021,2025_May_08_1239,ConditionRich,2021.2.3,59.932025097038114,
372.0,388.0,0,0.0,Stimuli/Blank.png,1,7.0,7.75,0,164,164,164,,,,,,,,,,,,,372.0143723000001,0.014372300000104588,2,419.5355279000005,419.5355279000005,419.5355279000005,419.5355279000005,419.5355279000005,419.5355279000005,426.52504789999966,427.2590840999992,419.5355279000005,419.5355279000005,7.430627100000493,008,P021,2025_May_08_1239,ConditionRich,2021.2.3,59.932025097038114,
