eventStartTime,eventEndTime,eventCond,imSize,imFile,responseEvent,fixRespStart,fixRespEnd,Events.thisRepN,Events.thisTrialN,Events.thisN,Events.thisIndex,Instructions.started,Instructions.stopped,participantReadyResponse.keys,participantReadyResponse.rt,participantReadyResponse.started,participantReadyResponse.stopped,startWaitforTrigger,triggerResponse.keys,triggerResponse.rt,triggerResponse.started,triggerResponse.stopped,globalTimer,actualStartTime,startTimingDiff,participantResponse.keys,participantResponse.started,participantResponse.stopped,image.started,image.stopped,fixationOutside.started,fixationOutside.stopped,fixationResponse.started,fixationResponse.stopped,fixationInside.started,fixationInside.stopped,participantResponse.rt,session,participant,date,expName,psychopyVersion,frameRate,
,,,,,,,,,,,,54.84718360000261,None,1,10.81626280000637,54.84718360000261,None,,,,,,,,,,,,,,,,,,,,,001,P022,2025_May_13_1658,ConditionRich,2021.2.3,59.934072522326986,
,,,,,,,,,,,,,,,,,,65.67870440000115,5,13.620300799993856,65.69198789999791,None,,,,,,,,,,,,,,,,001,P022,2025_May_13_1658,ConditionRich,2021.2.3,59.934072522326986,
0.0,4.0,0,0.0,Stimuli/Blank.png,0,0.0,0.0,0,0,0,0,,,,,,,,,,,,79.32355739999912,0.027612700003373902,0.027612700003373902,None,79.3706977000038,None,79.3706977000038,None,79.3706977000038,None,79.3706977000038,79.3706977000038,79.3706977000038,None,,001,P022,2025_May_13_1658,ConditionRich,2021.2.3,59.934072522326986,
4.0,4.75,40,0.75,Stimuli/P016/things_woman_08s.jpg,0,0.0,0.0,0,1,1,1,,,,,,,,,,,,,4.02229190000071,0.022291900000709575,None,83.37459040000249,83.37459040000249,83.37459040000249,83.37459040000249,83.37459040000249,83.37459040000249,83.37459040000249,83.37459040000249,83.37459040000249,83.37459040000249,,001,P022,2025_May_13_1658,ConditionRich,2021.2.3,59.934072522326986,
4.75,8.0,41,0.0,Stimuli/Blank.png,1,2.25,3.0,0,2,2,2,,,,,,,,,,,,,4.770737699996971,0.02073769999697106,1,84.10852000000159,84.10852000000159,84.10852000000159,84.10852000000159,84.10852000000159,84.10852000000159,86.34352539999963,87.09423210000386,84.10852000000159,84.10852000000159,2.561606999996002,001,P022,2025_May_13_1658,ConditionRich,2021.2.3,59.934072522326986,
8.0,8.75,35,0.75,Stimuli/P016/things_squid_08s.jpg,0,0.0,0.0,0,3,3,3,,,,,,,,,,,,,8.006499499999336,0.006499499999335967,None,87.34440790000372,87.34440790000372,87.34440790000372,87.34440790000372,87.34440790000372,87.34440790000372,87.34440790000372,87.34440790000372,87.34440790000372,87.34440790000372,,001,P022,2025_May_13_1658,ConditionRich,2021.2.3,59.934072522326986,
8.75,12.0,41,0.0,Stimuli/Blank.png,1,0.25,1.0,0,4,4,4,,,,,,,,,,,,,8.758284499999718,0.00828449999971781,1,88.09508790000109,88.09508790000109,88.09508790000109,88.09508790000109,88.09508790000109,88.09508790000109,88.32865200000379,89.07932009999786,88.09508790000109,88.09508790000109,0.5677476999990176,001,P022,2025_May_13_1658,ConditionRich,2021.2.3,59.934072522326986,
12.0,12.75,13,0.75,Stimuli/P016/sun_bphvjnowixlryxot.jpg,0,0.0,0.0,0,5,5,5,,,,,,,,,,,,,12.010632800003805,0.010632800003804732,None,91.34795719999966,91.34795719999966,91.34795719999966,91.34795719999966,91.34795719999966,91.34795719999966,91.34795719999966,91.34795719999966,91.34795719999966,91.34795719999966,,001,P022,2025_May_13_1658,ConditionRich,2021.2.3,59.934072522326986,
12.75,16.0,41,0.0,Stimuli/Blank.png,0,0.0,0.0,0,6,6,6,,,,,,,,,,,,,12.761340600001859,0.011340600001858547,None,92.09866080000211,92.09866080000211,92.09866080000211,92.09866080000211,92.09866080000211,92.09866080000211,92.09866080000211,92.09866080000211,92.09866080000211,92.09866080000211,,001,P022,2025_May_13_1658,ConditionRich,2021.2.3,59.934072522326986,
16.0,16.75,28,0.75,Stimuli/P016/things_latte_08s.jpg,0,0.0,0.0,0,7,7,7,,,,,,,,,,,,,16.014796800001932,0.014796800001931842,None,95.3681687999997,95.3681687999997,95.3681687999997,95.3681687999997,95.3681687999997,95.3681687999997,95.3681687999997,95.3681687999997,95.3681687999997,95.3681687999997,,001,P022,2025_May_13_1658,ConditionRich,2021.2.3,59.934072522326986,
16.75,20.0,41,0.0,Stimuli/Blank.png,0,0.0,0.0,0,8,8,8,,,,,,,,,,,,,16.781337899999926,0.03133789999992587,None,96.11890290000156,96.11890290000156,96.11890290000156,96.11890290000156,96.11890290000156,96.11890290000156,96.11890290000156,96.11890290000156,96.11890290000156,96.11890290000156,,001,P022,2025_May_13_1658,ConditionRich,2021.2.3,59.934072522326986,
20.0,20.75,39,0.75,Stimuli/P016/things_window_08s.jpg,0,0.0,0.0,0,9,9,9,,,,,,,,,,,,,20.000916700002563,0.0009167000025627203,None,99.33830409999791,99.33830409999791,99.33830409999791,99.33830409999791,99.33830409999791,99.33830409999791,99.33830409999791,99.33830409999791,99.33830409999791,99.33830409999791,,001,P022,2025_May_13_1658,ConditionRich,2021.2.3,59.934072522326986,
20.75,24.0,41,0.0,Stimuli/Blank.png,0,0.0,0.0,0,10,10,10,,,,,,,,,,,,,20.751386099997035,0.001386099997034762,None,100.08908759999758,100.08908759999758,100.08908759999758,100.08908759999758,100.08908759999758,100.08908759999758,100.08908759999758,100.08908759999758,100.08908759999758,100.08908759999758,,001,P022,2025_May_13_1658,ConditionRich,2021.2.3,59.934072522326986,
24.0,24.75,25,0.75,Stimuli/P016/things_deer_08s.jpg,0,0.0,0.0,0,11,11,11,,,,,,,,,,,,,24.00374179999926,0.003741799999261275,None,103.34189699999843,103.34189699999843,103.34189699999843,103.34189699999843,103.34189699999843,103.34189699999843,103.34189699999843,103.34189699999843,103.34189699999843,103.34189699999843,,001,P022,2025_May_13_1658,ConditionRich,2021.2.3,59.934072522326986,
24.75,28.0,41,0.0,Stimuli/Blank.png,0,0.0,0.0,0,12,12,12,,,,,,,,,,,,,24.754394600000523,0.004394600000523496,None,104.09254130000045,104.09254130000045,104.09254130000045,104.09254130000045,104.09254130000045,104.09254130000045,104.09254130000045,104.09254130000045,104.09254130000045,104.09254130000045,,001,P022,2025_May_13_1658,ConditionRich,2021.2.3,59.934072522326986,
28.0,28.75,27,0.75,Stimuli/P016/things_girl_08s.jpg,0,0.0,0.0,0,13,13,13,,,,,,,,,,,,,28.00803140000062,0.008031400000618305,None,107.34543700000359,107.34543700000359,107.34543700000359,107.34543700000359,107.34543700000359,107.34543700000359,107.34543700000359,107.34543700000359,107.34543700000359,107.34543700000359,,001,P022,2025_May_13_1658,ConditionRich,2021.2.3,59.934072522326986,
28.75,32.0,41,0.0,Stimuli/Blank.png,0,0.0,0.0,0,14,14,14,,,,,,,,,,,,,28.759262699997635,0.009262699997634627,None,108.09609400000045,108.09609400000045,108.09609400000045,108.09609400000045,108.09609400000045,108.09609400000045,108.09609400000045,108.09609400000045,108.09609400000045,108.09609400000045,,001,P022,2025_May_13_1658,ConditionRich,2021.2.3,59.934072522326986,
32.0,32.75,11,0.75,Stimuli/P016/sun_bnwmcjuinqbdsbho.jpg,0,0.0,0.0,0,15,15,15,,,,,,,,,,,,,32.01145320000069,0.011453200000687502,None,111.36570629999915,111.36570629999915,111.36570629999915,111.36570629999915,111.36570629999915,111.36570629999915,111.36570629999915,111.36570629999915,111.36570629999915,111.36570629999915,,001,P022,2025_May_13_1658,ConditionRich,2021.2.3,59.934072522326986,
32.75,36.0,41,0.0,Stimuli/Blank.png,0,0.0,0.0,0,16,16,16,,,,,,,,,,,,,32.778469400000176,0.028469400000176392,None,112.11634810000396,112.11634810000396,112.11634810000396,112.11634810000396,112.11634810000396,112.11634810000396,112.11634810000396,112.11634810000396,112.11634810000396,112.11634810000396,,001,P022,2025_May_13_1658,ConditionRich,2021.2.3,59.934072522326986,
36.0,36.75,14,0.75,Stimuli/P016/sun_bpvmkbyglkraoxhh.jpg,0,0.0,0.0,0,17,17,17,,,,,,,,,,,,,36.014649600001576,0.014649600001575891,None,115.35249370000383,115.35249370000383,115.35249370000383,115.35249370000383,115.35249370000383,115.35249370000383,115.35249370000383,115.35249370000383,115.35249370000383,115.35249370000383,,001,P022,2025_May_13_1658,ConditionRich,2021.2.3,59.934072522326986,
36.75,40.0,41,0.0,Stimuli/Blank.png,0,0.0,0.0,0,18,18,18,,,,,,,,,,,,,36.76565780000237,0.015657800002372824,None,116.10316479999892,116.10316479999892,116.10316479999892,116.10316479999892,116.10316479999892,116.10316479999892,116.10316479999892,116.10316479999892,116.10316479999892,116.10316479999892,,001,P022,2025_May_13_1658,ConditionRich,2021.2.3,59.934072522326986,
40.0,40.75,30,0.75,Stimuli/P016/things_ottoman_08s.jpg,0,0.0,0.0,0,19,19,19,,,,,,,,,,,,,40.00176250000368,0.0017625000036787242,None,119.3560542999985,119.3560542999985,119.3560542999985,119.3560542999985,119.3560542999985,119.3560542999985,119.3560542999985,119.3560542999985,119.3560542999985,119.3560542999985,,001,P022,2025_May_13_1658,ConditionRich,2021.2.3,59.934072522326986,
40.75,44.0,41,0.0,Stimuli/Blank.png,0,0.0,0.0,0,20,20,20,,,,,,,,,,,,,40.76931219999824,0.01931219999823952,None,120.10671210000146,120.10671210000146,120.10671210000146,120.10671210000146,120.10671210000146,120.10671210000146,120.10671210000146,120.10671210000146,120.10671210000146,120.10671210000146,,001,P022,2025_May_13_1658,ConditionRich,2021.2.3,59.934072522326986,
44.0,44.75,5,0.75,Stimuli/P016/sun_ajgmxbrxdpmsaext.jpg,0,0.0,0.0,0,21,21,21,,,,,,,,,,,,,44.00483440000244,0.004834400002437178,None,123.34291289999965,123.34291289999965,123.34291289999965,123.34291289999965,123.34291289999965,123.34291289999965,123.34291289999965,123.34291289999965,123.34291289999965,123.34291289999965,,001,P022,2025_May_13_1658,ConditionRich,2021.2.3,59.934072522326986,
44.75,48.0,41,0.0,Stimuli/Blank.png,1,0.25,1.0,0,22,22,22,,,,,,,,,,,,,44.756103200001235,0.006103200001234654,1,124.09356880000269,124.09356880000269,124.09356880000269,124.09356880000269,124.09356880000269,124.09356880000269,124.32714239999768,125.0778089000014,124.09356880000269,124.09356880000269,0.6635666000001947,001,P022,2025_May_13_1658,ConditionRich,2021.2.3,59.934072522326986,
48.0,48.75,21,0.75,Stimuli/P016/things_arch_08s.jpg,0,0.0,0.0,0,23,23,23,,,,,,,,,,,,,48.00953280000249,0.009532800002489239,None,127.36314039999706,127.36314039999706,127.36314039999706,127.36314039999706,127.36314039999706,127.36314039999706,127.36314039999706,127.36314039999706,127.36314039999706,127.36314039999706,,001,P022,2025_May_13_1658,ConditionRich,2021.2.3,59.934072522326986,
48.75,52.0,41,0.0,Stimuli/Blank.png,0,0.0,0.0,0,24,24,24,,,,,,,,,,,,,48.77678449999803,0.026784499998029787,None,128.11379450000095,128.11379450000095,128.11379450000095,128.11379450000095,128.11379450000095,128.11379450000095,128.11379450000095,128.11379450000095,128.11379450000095,128.11379450000095,,001,P022,2025_May_13_1658,ConditionRich,2021.2.3,59.934072522326986,
52.0,52.75,24,0.75,Stimuli/P016/things_bunkbed_08s.jpg,0,0.0,0.0,0,25,25,25,,,,,,,,,,,,,52.01487659999839,0.014876599998387974,None,131.36667229999875,131.36667229999875,131.36667229999875,131.36667229999875,131.36667229999875,131.36667229999875,131.36667229999875,131.36667229999875,131.36667229999875,131.36667229999875,,001,P022,2025_May_13_1658,ConditionRich,2021.2.3,59.934072522326986,
52.75,56.0,41,0.0,Stimuli/Blank.png,1,1.25,2.0,0,26,26,26,,,,,,,,,,,,,52.78057400000398,0.030574000003980473,1,132.13402089999727,132.13402089999727,132.13402089999727,132.13402089999727,132.13402089999727,132.13402089999727,133.35174890000053,134.10240720000002,132.13402089999727,132.13402089999727,1.615026699997543,001,P022,2025_May_13_1658,ConditionRich,2021.2.3,59.934072522326986,
56.0,56.75,18,0.75,Stimuli/P016/sun_byavixgfuhzioilz.jpg,0,0.0,0.0,0,27,27,27,,,,,,,,,,,,,56.0154584999982,0.015458499998203479,None,135.3702065999969,135.3702065999969,135.3702065999969,135.3702065999969,135.3702065999969,135.3702065999969,135.3702065999969,135.3702065999969,135.3702065999969,135.3702065999969,,001,P022,2025_May_13_1658,ConditionRich,2021.2.3,59.934072522326986,
56.75,60.0,41,0.0,Stimuli/Blank.png,0,0.0,0.0,0,28,28,28,,,,,,,,,,,,,56.76896449999913,0.018964499999128748,None,136.12088159999985,136.12088159999985,136.12088159999985,136.12088159999985,136.12088159999985,136.12088159999985,136.12088159999985,136.12088159999985,136.12088159999985,136.12088159999985,,001,P022,2025_May_13_1658,ConditionRich,2021.2.3,59.934072522326986,
60.0,60.75,33,0.75,Stimuli/P016/things_raccoon_08n.jpg,0,0.0,0.0,0,29,29,29,,,,,,,,,,,,,60.01961360000132,0.019613600001321174,None,139.3737390000024,139.3737390000024,139.3737390000024,139.3737390000024,139.3737390000024,139.3737390000024,139.3737390000024,139.3737390000024,139.3737390000024,139.3737390000024,,001,P022,2025_May_13_1658,ConditionRich,2021.2.3,59.934072522326986,
60.75,64.0,41,0.0,Stimuli/Blank.png,0,0.0,0.0,0,30,30,30,,,,,,,,,,,,,60.7698784000022,0.01987840000219876,None,140.10772610000276,140.10772610000276,140.10772610000276,140.10772610000276,140.10772610000276,140.10772610000276,140.10772610000276,140.10772610000276,140.10772610000276,140.10772610000276,,001,P022,2025_May_13_1658,ConditionRich,2021.2.3,59.934072522326986,
64.0,64.75,32,0.75,Stimuli/P016/things_pheasant_08s.jpg,0,0.0,0.0,0,31,31,31,,,,,,,,,,,,,64.00593949999893,0.005939499998930842,None,143.37729380000383,143.37729380000383,143.37729380000383,143.37729380000383,143.37729380000383,143.37729380000383,143.37729380000383,143.37729380000383,143.37729380000383,143.37729380000383,,001,P022,2025_May_13_1658,ConditionRich,2021.2.3,59.934072522326986,
64.75,68.0,41,0.0,Stimuli/Blank.png,0,0.0,0.0,0,32,32,32,,,,,,,,,,,,,64.78987570000027,0.03987570000026608,None,144.12794779999967,144.12794779999967,144.12794779999967,144.12794779999967,144.12794779999967,144.12794779999967,144.12794779999967,144.12794779999967,144.12794779999967,144.12794779999967,,001,P022,2025_May_13_1658,ConditionRich,2021.2.3,59.934072522326986,
68.0,68.75,10,0.75,Stimuli/P016/sun_bfojpvrlsrtfyzio.jpg,0,0.0,0.0,0,33,33,33,,,,,,,,,,,,,68.01012469999841,0.010124699998414144,None,147.36460990000342,147.36460990000342,147.36460990000342,147.36460990000342,147.36460990000342,147.36460990000342,147.36460990000342,147.36460990000342,147.36460990000342,147.36460990000342,,001,P022,2025_May_13_1658,ConditionRich,2021.2.3,59.934072522326986,
68.75,72.0,41,0.0,Stimuli/Blank.png,0,0.0,0.0,0,34,34,34,,,,,,,,,,,,,68.77913680000347,0.029136800003470853,None,148.13151030000154,148.13151030000154,148.13151030000154,148.13151030000154,148.13151030000154,148.13151030000154,148.13151030000154,148.13151030000154,148.13151030000154,148.13151030000154,,001,P022,2025_May_13_1658,ConditionRich,2021.2.3,59.934072522326986,
72.0,72.75,16,0.75,Stimuli/P016/sun_bwhuwxazfqwuqhik.jpg,0,0.0,0.0,0,35,35,35,,,,,,,,,,,,,72.02950910000072,0.029509100000723265,None,151.38437559999875,151.38437559999875,151.38437559999875,151.38437559999875,151.38437559999875,151.38437559999875,151.38437559999875,151.38437559999875,151.38437559999875,151.38437559999875,,001,P022,2025_May_13_1658,ConditionRich,2021.2.3,59.934072522326986,
72.75,76.0,41,0.0,Stimuli/Blank.png,0,0.0,0.0,0,36,36,36,,,,,,,,,,,,,72.78011669999978,0.030116699999780394,None,152.1183533000003,152.1183533000003,152.1183533000003,152.1183533000003,152.1183533000003,152.1183533000003,152.1183533000003,152.1183533000003,152.1183533000003,152.1183533000003,,001,P022,2025_May_13_1658,ConditionRich,2021.2.3,59.934072522326986,
76.0,76.75,3,0.75,Stimuli/P016/sun_aiogwnavezqxkzfg.jpg,0,0.0,0.0,0,37,37,37,,,,,,,,,,,,,75.99985249999736,-0.0001475000026402995,None,155.3545157999979,155.3545157999979,155.3545157999979,155.3545157999979,155.3545157999979,155.3545157999979,155.3545157999979,155.3545157999979,155.3545157999979,155.3545157999979,,001,P022,2025_May_13_1658,ConditionRich,2021.2.3,59.934072522326986,
76.75,80.0,41,0.0,Stimuli/Blank.png,0,0.0,0.0,0,38,38,38,,,,,,,,,,,,,76.76940689999901,0.01940689999901224,None,156.12187840000115,156.12187840000115,156.12187840000115,156.12187840000115,156.12187840000115,156.12187840000115,156.12187840000115,156.12187840000115,156.12187840000115,156.12187840000115,,001,P022,2025_May_13_1658,ConditionRich,2021.2.3,59.934072522326986,
80.0,80.75,20,0.75,Stimuli/P016/sun_bzmxulijbnmshodq.jpg,0,0.0,0.0,0,39,39,39,,,,,,,,,,,,,80.01986459999898,0.019864599998982158,None,159.37477059999947,159.37477059999947,159.37477059999947,159.37477059999947,159.37477059999947,159.37477059999947,159.37477059999947,159.37477059999947,159.37477059999947,159.37477059999947,,001,P022,2025_May_13_1658,ConditionRich,2021.2.3,59.934072522326986,
80.75,84.0,41,0.0,Stimuli/Blank.png,0,0.0,0.0,0,40,40,40,,,,,,,,,,,,,80.77094339999894,0.02094339999894146,None,160.1087359000012,160.1087359000012,160.1087359000012,160.1087359000012,160.1087359000012,160.1087359000012,160.1087359000012,160.1087359000012,160.1087359000012,160.1087359000012,,001,P022,2025_May_13_1658,ConditionRich,2021.2.3,59.934072522326986,
84.0,100.0,0,0.0,Stimuli/Blank.png,1,6.0,6.75,0,41,41,41,,,,,,,,,,,,,84.00739669999894,0.007396699998935219,1,163.34498110000277,163.34498110000277,163.34498110000277,163.34498110000277,163.34498110000277,163.34498110000277,169.3336150000032,170.0842124999981,163.34498110000277,163.34498110000277,6.36530109999876,001,P022,2025_May_13_1658,ConditionRich,2021.2.3,59.934072522326986,
100.0,100.75,2,0.75,Stimuli/P016/sun_agzfkftryitnqpxc.jpg,0,0.0,0.0,0,42,42,42,,,,,,,,,,,,,100.00548479999998,0.005484799999976531,None,179.35908989999734,179.35908989999734,179.35908989999734,179.35908989999734,179.35908989999734,179.35908989999734,179.35908989999734,179.35908989999734,179.35908989999734,179.35908989999734,,001,P022,2025_May_13_1658,ConditionRich,2021.2.3,59.934072522326986,
100.75,104.0,41,0.0,Stimuli/Blank.png,1,2.25,3.0,0,43,43,43,,,,,,,,,,,,,100.77241740000318,0.022417400003178045,1,180.10976110000047,180.10976110000047,180.10976110000047,180.10976110000047,180.10976110000047,180.10976110000047,182.34509709999838,183.0957178000026,180.10976110000047,180.10976110000047,2.612373399999342,001,P022,2025_May_13_1658,ConditionRich,2021.2.3,59.934072522326986,
104.0,104.75,31,0.75,Stimuli/P016/things_outlet_08s.jpg,0,0.0,0.0,0,44,44,44,,,,,,,,,,,,,104.00874219999969,0.008742199999687728,None,183.36265080000157,183.36265080000157,183.36265080000157,183.36265080000157,183.36265080000157,183.36265080000157,183.36265080000157,183.36265080000157,183.36265080000157,183.36265080000157,,001,P022,2025_May_13_1658,ConditionRich,2021.2.3,59.934072522326986,
104.75,108.0,41,0.0,Stimuli/Blank.png,0,0.0,0.0,0,45,45,45,,,,,,,,,,,,,104.77508859999944,0.025088599999435246,None,184.11329690000275,184.11329690000275,184.11329690000275,184.11329690000275,184.11329690000275,184.11329690000275,184.11329690000275,184.11329690000275,184.11329690000275,184.11329690000275,,001,P022,2025_May_13_1658,ConditionRich,2021.2.3,59.934072522326986,
108.0,108.75,6,0.75,Stimuli/P016/sun_akecfasimgpbqcnt.jpg,0,0.0,0.0,0,46,46,46,,,,,,,,,,,,,108.01197520000278,0.011975200002780184,None,187.36616920000233,187.36616920000233,187.36616920000233,187.36616920000233,187.36616920000233,187.36616920000233,187.36616920000233,187.36616920000233,187.36616920000233,187.36616920000233,,001,P022,2025_May_13_1658,ConditionRich,2021.2.3,59.934072522326986,
108.75,112.0,41,0.0,Stimuli/Blank.png,0,0.0,0.0,0,47,47,47,,,,,,,,,,,,,108.77944959999877,0.02944959999877028,None,188.1168125999975,188.1168125999975,188.1168125999975,188.1168125999975,188.1168125999975,188.1168125999975,188.1168125999975,188.1168125999975,188.1168125999975,188.1168125999975,,001,P022,2025_May_13_1658,ConditionRich,2021.2.3,59.934072522326986,
112.0,112.75,36,0.75,Stimuli/P016/things_streetlight_08s.jpg,0,0.0,0.0,0,48,48,48,,,,,,,,,,,,,111.99982090000412,-0.0001790999958757311,None,191.3530221999972,191.3530221999972,191.3530221999972,191.3530221999972,191.3530221999972,191.3530221999972,191.3530221999972,191.3530221999972,191.3530221999972,191.3530221999972,,001,P022,2025_May_13_1658,ConditionRich,2021.2.3,59.934072522326986,
112.75,116.0,41,0.0,Stimuli/Blank.png,0,0.0,0.0,0,49,49,49,,,,,,,,,,,,,112.76619200000277,0.016192000002774876,None,192.10369139999966,192.10369139999966,192.10369139999966,192.10369139999966,192.10369139999966,192.10369139999966,192.10369139999966,192.10369139999966,192.10369139999966,192.10369139999966,,001,P022,2025_May_13_1658,ConditionRich,2021.2.3,59.934072522326986,
116.0,116.75,4,0.75,Stimuli/P016/sun_aiwuqxdqzftsfyeg.jpg,0,0.0,0.0,0,50,50,50,,,,,,,,,,,,,116.003174700003,0.0031747000030009076,None,195.35653679999814,195.35653679999814,195.35653679999814,195.35653679999814,195.35653679999814,195.35653679999814,195.35653679999814,195.35653679999814,195.35653679999814,195.35653679999814,,001,P022,2025_May_13_1658,ConditionRich,2021.2.3,59.934072522326986,
116.75,120.0,41,0.0,Stimuli/Blank.png,0,0.0,0.0,0,51,51,51,,,,,,,,,,,,,116.76999230000365,0.019992300003650598,None,196.1072254000028,196.1072254000028,196.1072254000028,196.1072254000028,196.1072254000028,196.1072254000028,196.1072254000028,196.1072254000028,196.1072254000028,196.1072254000028,,001,P022,2025_May_13_1658,ConditionRich,2021.2.3,59.934072522326986,
120.0,120.75,7,0.75,Stimuli/P016/sun_aqdfrmtvewaapuqs.jpg,0,0.0,0.0,0,52,52,52,,,,,,,,,,,,,120.00526399999944,0.0052639999994426034,None,199.3601071000012,199.3601071000012,199.3601071000012,199.3601071000012,199.3601071000012,199.3601071000012,199.3601071000012,199.3601071000012,199.3601071000012,199.3601071000012,,001,P022,2025_May_13_1658,ConditionRich,2021.2.3,59.934072522326986,
120.75,124.0,41,0.0,Stimuli/Blank.png,0,0.0,0.0,0,53,53,53,,,,,,,,,,,,,120.77336099999957,0.023360999999567866,None,200.1107669999983,200.1107669999983,200.1107669999983,200.1107669999983,200.1107669999983,200.1107669999983,200.1107669999983,200.1107669999983,200.1107669999983,200.1107669999983,,001,P022,2025_May_13_1658,ConditionRich,2021.2.3,59.934072522326986,
124.0,124.75,8,0.75,Stimuli/P016/sun_arldxotvfucvuudk.jpg,0,0.0,0.0,0,54,54,54,,,,,,,,,,,,,124.00954910000291,0.009549100002914201,None,203.38031359999877,203.38031359999877,203.38031359999877,203.38031359999877,203.38031359999877,203.38031359999877,203.38031359999877,203.38031359999877,203.38031359999877,203.38031359999877,,001,P022,2025_May_13_1658,ConditionRich,2021.2.3,59.934072522326986,
124.75,128.0,41,0.0,Stimuli/Blank.png,0,0.0,0.0,0,55,55,55,,,,,,,,,,,,,124.79368670000258,0.04368670000258135,None,204.13098739999987,204.13098739999987,204.13098739999987,204.13098739999987,204.13098739999987,204.13098739999987,204.13098739999987,204.13098739999987,204.13098739999987,204.13098739999987,,001,P022,2025_May_13_1658,ConditionRich,2021.2.3,59.934072522326986,
128.0,128.75,37,0.75,Stimuli/P016/things_swizzle_stick_08s.jpg,0,0.0,0.0,0,56,56,56,,,,,,,,,,,,,128.01461199999903,0.014611999999033287,None,207.36718310000288,207.36718310000288,207.36718310000288,207.36718310000288,207.36718310000288,207.36718310000288,207.36718310000288,207.36718310000288,207.36718310000288,207.36718310000288,,001,P022,2025_May_13_1658,ConditionRich,2021.2.3,59.934072522326986,
128.75,132.0,41,0.0,Stimuli/Blank.png,1,1.25,2.0,0,57,57,57,,,,,,,,,,,,,128.7804191000032,0.030419100003200583,1,208.1178448999999,208.1178448999999,208.1178448999999,208.1178448999999,208.1178448999999,208.1178448999999,209.35226580000017,210.1029251,208.1178448999999,208.1178448999999,1.6042807000048924,001,P022,2025_May_13_1658,ConditionRich,2021.2.3,59.934072522326986,
132.0,132.75,29,0.75,Stimuli/P016/things_mouse1_08s.jpg,0,0.0,0.0,0,58,58,58,,,,,,,,,,,,,132.000134300004,0.0001343000039923936,None,211.35405680000258,211.35405680000258,211.35405680000258,211.35405680000258,211.35405680000258,211.35405680000258,211.35405680000258,211.35405680000258,211.35405680000258,211.35405680000258,,001,P022,2025_May_13_1658,ConditionRich,2021.2.3,59.934072522326986,
132.75,136.0,41,0.0,Stimuli/Blank.png,0,0.0,0.0,0,59,59,59,,,,,,,,,,,,,132.76891910000268,0.018919100002676714,None,212.12139220000245,212.12139220000245,212.12139220000245,212.12139220000245,212.12139220000245,212.12139220000245,212.12139220000245,212.12139220000245,212.12139220000245,212.12139220000245,,001,P022,2025_May_13_1658,ConditionRich,2021.2.3,59.934072522326986,
136.0,136.75,1,0.75,Stimuli/P016/sun_aacpzgqrortyhyss.jpg,0,0.0,0.0,0,60,60,60,,,,,,,,,,,,,136.02013029999944,0.02013029999943683,None,215.3742775999999,215.3742775999999,215.3742775999999,215.3742775999999,215.3742775999999,215.3742775999999,215.3742775999999,215.3742775999999,215.3742775999999,215.3742775999999,,001,P022,2025_May_13_1658,ConditionRich,2021.2.3,59.934072522326986,
136.75,140.0,41,0.0,Stimuli/Blank.png,0,0.0,0.0,0,61,61,61,,,,,,,,,,,,,136.7712309999988,0.02123099999880651,None,216.1249495000011,216.1249495000011,216.1249495000011,216.1249495000011,216.1249495000011,216.1249495000011,216.1249495000011,216.1249495000011,216.1249495000011,216.1249495000011,,001,P022,2025_May_13_1658,ConditionRich,2021.2.3,59.934072522326986,
140.0,140.75,26,0.75,Stimuli/P016/things_face_08s.jpg,0,0.0,0.0,0,62,62,62,,,,,,,,,,,,,140.02479300000414,0.024793000004137866,None,219.37780439999915,219.37780439999915,219.37780439999915,219.37780439999915,219.37780439999915,219.37780439999915,219.37780439999915,219.37780439999915,219.37780439999915,219.37780439999915,,001,P022,2025_May_13_1658,ConditionRich,2021.2.3,59.934072522326986,
140.75,144.0,41,0.0,Stimuli/Blank.png,0,0.0,0.0,0,63,63,63,,,,,,,,,,,,,140.7746111000015,0.02461110000149347,None,220.11188550000224,220.11188550000224,220.11188550000224,220.11188550000224,220.11188550000224,220.11188550000224,220.11188550000224,220.11188550000224,220.11188550000224,220.11188550000224,,001,P022,2025_May_13_1658,ConditionRich,2021.2.3,59.934072522326986,
144.0,144.75,22,0.75,Stimuli/P016/things_baby_08s.jpg,0,0.0,0.0,0,64,64,64,,,,,,,,,,,,,144.0098027999993,0.009802799999306444,None,223.38133519999974,223.38133519999974,223.38133519999974,223.38133519999974,223.38133519999974,223.38133519999974,223.38133519999974,223.38133519999974,223.38133519999974,223.38133519999974,,001,P022,2025_May_13_1658,ConditionRich,2021.2.3,59.934072522326986,
144.75,148.0,41,0.0,Stimuli/Blank.png,0,0.0,0.0,0,65,65,65,,,,,,,,,,,,,144.7947392999995,0.04473929999949178,None,224.1320055000033,224.1320055000033,224.1320055000033,224.1320055000033,224.1320055000033,224.1320055000033,224.1320055000033,224.1320055000033,224.1320055000033,224.1320055000033,,001,P022,2025_May_13_1658,ConditionRich,2021.2.3,59.934072522326986,
148.0,148.75,23,0.75,Stimuli/P016/things_boy_08s.jpg,0,0.0,0.0,0,66,66,66,,,,,,,,,,,,,148.01413899999898,0.014138999998976942,None,227.35150660000363,227.35150660000363,227.35150660000363,227.35150660000363,227.35150660000363,227.35150660000363,227.35150660000363,227.35150660000363,227.35150660000363,227.35150660000363,,001,P022,2025_May_13_1658,ConditionRich,2021.2.3,59.934072522326986,
148.75,152.0,41,0.0,Stimuli/Blank.png,0,0.0,0.0,0,67,67,67,,,,,,,,,,,,,148.7650852000006,0.01508520000061253,None,228.10218090000126,228.10218090000126,228.10218090000126,228.10218090000126,228.10218090000126,228.10218090000126,228.10218090000126,228.10218090000126,228.10218090000126,228.10218090000126,,001,P022,2025_May_13_1658,ConditionRich,2021.2.3,59.934072522326986,
152.0,152.75,12,0.75,Stimuli/P016/sun_boffixsnbbloarty.jpg,1,0.0,0.75,0,68,68,68,,,,,,,,,,,,,152.00090389999968,0.0009038999996846542,1,231.35505140000168,231.35505140000168,231.35505140000168,231.35505140000168,231.35505140000168,231.35505140000168,231.35505140000168,232.0723472000027,231.35505140000168,231.35505140000168,0.5384014000010211,001,P022,2025_May_13_1658,ConditionRich,2021.2.3,59.934072522326986,
152.75,156.0,41,0.0,Stimuli/Blank.png,0,0.0,0.0,0,69,69,69,,,,,,,,,,,,,152.76998370000365,0.019983700003649574,None,232.1223936000024,232.1223936000024,232.1223936000024,232.1223936000024,232.1223936000024,232.1223936000024,232.1223936000024,232.1223936000024,232.1223936000024,232.1223936000024,,001,P022,2025_May_13_1658,ConditionRich,2021.2.3,59.934072522326986,
156.0,156.75,19,0.75,Stimuli/P016/sun_bzhwvgrzvttqoexa.jpg,0,0.0,0.0,0,70,70,70,,,,,,,,,,,,,156.02066829999967,0.020668299999670126,None,235.37530259999767,235.37530259999767,235.37530259999767,235.37530259999767,235.37530259999767,235.37530259999767,235.37530259999767,235.37530259999767,235.37530259999767,235.37530259999767,,001,P022,2025_May_13_1658,ConditionRich,2021.2.3,59.934072522326986,
156.75,160.0,41,0.0,Stimuli/Blank.png,0,0.0,0.0,0,71,71,71,,,,,,,,,,,,,156.7712834999984,0.021283499998389743,None,236.1092559000026,236.1092559000026,236.1092559000026,236.1092559000026,236.1092559000026,236.1092559000026,236.1092559000026,236.1092559000026,236.1092559000026,236.1092559000026,,001,P022,2025_May_13_1658,ConditionRich,2021.2.3,59.934072522326986,
160.0,160.75,9,0.75,Stimuli/P016/sun_bbdgftzhpkaklkll.jpg,0,0.0,0.0,0,72,72,72,,,,,,,,,,,,,160.0077908000021,0.007790800002112519,None,239.36214250000194,239.36214250000194,239.36214250000194,239.36214250000194,239.36214250000194,239.36214250000194,239.36214250000194,239.36214250000194,239.36214250000194,239.36214250000194,,001,P022,2025_May_13_1658,ConditionRich,2021.2.3,59.934072522326986,
160.75,164.0,41,0.0,Stimuli/Blank.png,0,0.0,0.0,0,73,73,73,,,,,,,,,,,,,160.7746191000042,0.024619100004201755,None,240.1127873000005,240.1127873000005,240.1127873000005,240.1127873000005,240.1127873000005,240.1127873000005,240.1127873000005,240.1127873000005,240.1127873000005,240.1127873000005,,001,P022,2025_May_13_1658,ConditionRich,2021.2.3,59.934072522326986,
164.0,164.75,15,0.75,Stimuli/P016/sun_bvfcijehgdsndfbg.jpg,0,0.0,0.0,0,74,74,74,,,,,,,,,,,,,164.01144519999798,0.011445199997979216,None,243.38235530000384,243.38235530000384,243.38235530000384,243.38235530000384,243.38235530000384,243.38235530000384,243.38235530000384,243.38235530000384,243.38235530000384,243.38235530000384,,001,P022,2025_May_13_1658,ConditionRich,2021.2.3,59.934072522326986,
164.75,168.0,41,0.0,Stimuli/Blank.png,1,0.25,1.0,0,75,75,75,,,,,,,,,,,,,164.79562309999892,0.045623099998920225,1,244.13299559999723,244.13299559999723,244.13299559999723,244.13299559999723,244.13299559999723,244.13299559999723,244.36654970000382,245.11720870000136,244.13299559999723,244.13299559999723,0.6601957000020775,001,P022,2025_May_13_1658,ConditionRich,2021.2.3,59.934072522326986,
168.0,168.75,38,0.75,Stimuli/P016/things_trumpet_08s.jpg,0,0.0,0.0,0,76,76,76,,,,,,,,,,,,,168.01513790000172,0.015137900001718663,None,247.36922849999974,247.36922849999974,247.36922849999974,247.36922849999974,247.36922849999974,247.36922849999974,247.36922849999974,247.36922849999974,247.36922849999974,247.36922849999974,,001,P022,2025_May_13_1658,ConditionRich,2021.2.3,59.934072522326986,
168.75,172.0,41,0.0,Stimuli/Blank.png,0,0.0,0.0,0,77,77,77,,,,,,,,,,,,,168.7651227000024,0.015122700002393685,None,248.10318740000366,248.10318740000366,248.10318740000366,248.10318740000366,248.10318740000366,248.10318740000366,248.10318740000366,248.10318740000366,248.10318740000366,248.10318740000366,,001,P022,2025_May_13_1658,ConditionRich,2021.2.3,59.934072522326986,
172.0,172.75,34,0.75,Stimuli/P016/things_shower_cap_08s.jpg,0,0.0,0.0,0,78,78,78,,,,,,,,,,,,,172.00132060000033,0.0013206000003265217,None,251.37275460000092,251.37275460000092,251.37275460000092,251.37275460000092,251.37275460000092,251.37275460000092,251.37275460000092,251.37275460000092,251.37275460000092,251.37275460000092,,001,P022,2025_May_13_1658,ConditionRich,2021.2.3,59.934072522326986,
172.75,176.0,41,0.0,Stimuli/Blank.png,0,0.0,0.0,0,79,79,79,,,,,,,,,,,,,172.7859518999976,0.03595189999759896,None,252.12339919999795,252.12339919999795,252.12339919999795,252.12339919999795,252.12339919999795,252.12339919999795,252.12339919999795,252.12339919999795,252.12339919999795,252.12339919999795,,001,P022,2025_May_13_1658,ConditionRich,2021.2.3,59.934072522326986,
176.0,176.75,17,0.75,Stimuli/P016/sun_bxhbltvqnpaciuzt.jpg,0,0.0,0.0,0,80,80,80,,,,,,,,,,,,,176.00479350000387,0.004793500003870577,None,255.3596447000018,255.3596447000018,255.3596447000018,255.3596447000018,255.3596447000018,255.3596447000018,255.3596447000018,255.3596447000018,255.3596447000018,255.3596447000018,,001,P022,2025_May_13_1658,ConditionRich,2021.2.3,59.934072522326986,
176.75,180.0,41,0.0,Stimuli/Blank.png,0,0.0,0.0,0,81,81,81,,,,,,,,,,,,,176.77290180000273,0.022901800002728123,None,256.1109332999986,256.1109332999986,256.1109332999986,256.1109332999986,256.1109332999986,256.1109332999986,256.1109332999986,256.1109332999986,256.1109332999986,256.1109332999986,,001,P022,2025_May_13_1658,ConditionRich,2021.2.3,59.934072522326986,
180.0,196.0,0,0.0,Stimuli/Blank.png,1,10.0,10.75,0,82,82,82,,,,,,,,,,,,,180.00897550000082,0.008975500000815373,1,259.3464649000016,259.3464649000016,259.3464649000016,259.3464649000016,259.3464649000016,259.3464649000016,269.33862979999685,270.0893240000005,259.3464649000016,259.3464649000016,10.34087929999805,001,P022,2025_May_13_1658,ConditionRich,2021.2.3,59.934072522326986,
196.0,196.75,15,0.75,Stimuli/P016/sun_bvfcijehgdsndfbg.jpg,0,0.0,0.0,0,83,83,83,,,,,,,,,,,,,196.00656300000264,0.0065630000026430935,None,275.36063200000353,275.36063200000353,275.36063200000353,275.36063200000353,275.36063200000353,275.36063200000353,275.36063200000353,275.36063200000353,275.36063200000353,275.36063200000353,,001,P022,2025_May_13_1658,ConditionRich,2021.2.3,59.934072522326986,
196.75,200.0,41,0.0,Stimuli/Blank.png,0,0.0,0.0,0,84,84,84,,,,,,,,,,,,,196.7738279999976,0.023827999997592997,None,276.11129549999896,276.11129549999896,276.11129549999896,276.11129549999896,276.11129549999896,276.11129549999896,276.11129549999896,276.11129549999896,276.11129549999896,276.11129549999896,,001,P022,2025_May_13_1658,ConditionRich,2021.2.3,59.934072522326986,
200.0,200.75,35,0.75,Stimuli/P016/things_squid_08s.jpg,0,0.0,0.0,0,85,85,85,,,,,,,,,,,,,200.00924959999975,0.00924959999974817,None,279.34748039999977,279.34748039999977,279.34748039999977,279.34748039999977,279.34748039999977,279.34748039999977,279.34748039999977,279.34748039999977,279.34748039999977,279.34748039999977,,001,P022,2025_May_13_1658,ConditionRich,2021.2.3,59.934072522326986,
200.75,204.0,41,0.0,Stimuli/Blank.png,0,0.0,0.0,0,86,86,86,,,,,,,,,,,,,200.76039319999836,0.010393199998361524,None,280.0981374999974,280.0981374999974,280.0981374999974,280.0981374999974,280.0981374999974,280.0981374999974,280.0981374999974,280.0981374999974,280.0981374999974,280.0981374999974,,001,P022,2025_May_13_1658,ConditionRich,2021.2.3,59.934072522326986,
204.0,204.75,30,0.75,Stimuli/P016/things_ottoman_08s.jpg,0,0.0,0.0,0,87,87,87,,,,,,,,,,,,,204.01386189999903,0.013861899999028537,None,283.36771710000176,283.36771710000176,283.36771710000176,283.36771710000176,283.36771710000176,283.36771710000176,283.36771710000176,283.36771710000176,283.36771710000176,283.36771710000176,,001,P022,2025_May_13_1658,ConditionRich,2021.2.3,59.934072522326986,
204.75,208.0,41,0.0,Stimuli/Blank.png,0,0.0,0.0,0,88,88,88,,,,,,,,,,,,,204.78115280000202,0.03115280000201892,None,284.1183591000008,284.1183591000008,284.1183591000008,284.1183591000008,284.1183591000008,284.1183591000008,284.1183591000008,284.1183591000008,284.1183591000008,284.1183591000008,,001,P022,2025_May_13_1658,ConditionRich,2021.2.3,59.934072522326986,
208.0,208.75,40,0.75,Stimuli/P016/things_woman_08s.jpg,0,0.0,0.0,0,89,89,89,,,,,,,,,,,,,208.00026739999885,0.0002673999988473952,None,287.33800820000033,287.33800820000033,287.33800820000033,287.33800820000033,287.33800820000033,287.33800820000033,287.33800820000033,287.33800820000033,287.33800820000033,287.33800820000033,,001,P022,2025_May_13_1658,ConditionRich,2021.2.3,59.934072522326986,
208.75,212.0,41,0.0,Stimuli/Blank.png,0,0.0,0.0,0,90,90,90,,,,,,,,,,,,,208.75051389999862,0.0005138999986229464,None,288.0885441999999,288.0885441999999,288.0885441999999,288.0885441999999,288.0885441999999,288.0885441999999,288.0885441999999,288.0885441999999,288.0885441999999,288.0885441999999,,001,P022,2025_May_13_1658,ConditionRich,2021.2.3,59.934072522326986,
212.0,212.75,18,0.75,Stimuli/P016/sun_byavixgfuhzioilz.jpg,0,0.0,0.0,0,91,91,91,,,,,,,,,,,,,212.00411680000252,0.004116800002520904,None,291.34141439999803,291.34141439999803,291.34141439999803,291.34141439999803,291.34141439999803,291.34141439999803,291.34141439999803,291.34141439999803,291.34141439999803,291.34141439999803,,001,P022,2025_May_13_1658,ConditionRich,2021.2.3,59.934072522326986,
212.75,216.0,41,0.0,Stimuli/Blank.png,0,0.0,0.0,0,92,92,92,,,,,,,,,,,,,212.7545106000034,0.004510600003413856,None,292.09207530000276,292.09207530000276,292.09207530000276,292.09207530000276,292.09207530000276,292.09207530000276,292.09207530000276,292.09207530000276,292.09207530000276,292.09207530000276,,001,P022,2025_May_13_1658,ConditionRich,2021.2.3,59.934072522326986,
216.0,216.75,24,0.75,Stimuli/P016/things_bunkbed_08s.jpg,0,0.0,0.0,0,93,93,93,,,,,,,,,,,,,216.00921100000414,0.009211000004142988,None,295.3616370000018,295.3616370000018,295.3616370000018,295.3616370000018,295.3616370000018,295.3616370000018,295.3616370000018,295.3616370000018,295.3616370000018,295.3616370000018,,001,P022,2025_May_13_1658,ConditionRich,2021.2.3,59.934072522326986,
216.75,220.0,41,0.0,Stimuli/Blank.png,0,0.0,0.0,0,94,94,94,,,,,,,,,,,,,216.77500310000323,0.025003100003232248,None,296.1122940999994,296.1122940999994,296.1122940999994,296.1122940999994,296.1122940999994,296.1122940999994,296.1122940999994,296.1122940999994,296.1122940999994,296.1122940999994,,001,P022,2025_May_13_1658,ConditionRich,2021.2.3,59.934072522326986,
220.0,220.75,36,0.75,Stimuli/P016/things_streetlight_08s.jpg,0,0.0,0.0,0,95,95,95,,,,,,,,,,,,,220.01059330000135,0.010593300001346506,None,299.34850200000074,299.34850200000074,299.34850200000074,299.34850200000074,299.34850200000074,299.34850200000074,299.34850200000074,299.34850200000074,299.34850200000074,299.34850200000074,,001,P022,2025_May_13_1658,ConditionRich,2021.2.3,59.934072522326986,
220.75,224.0,41,0.0,Stimuli/Blank.png,0,0.0,0.0,0,96,96,96,,,,,,,,,,,,,220.76091219999944,0.010912199999438599,None,300.0991606000025,300.0991606000025,300.0991606000025,300.0991606000025,300.0991606000025,300.0991606000025,300.0991606000025,300.0991606000025,300.0991606000025,300.0991606000025,,001,P022,2025_May_13_1658,ConditionRich,2021.2.3,59.934072522326986,
224.0,224.75,6,0.75,Stimuli/P016/sun_akecfasimgpbqcnt.jpg,0,0.0,0.0,0,97,97,97,,,,,,,,,,,,,224.0144214000029,0.014421400002902374,None,303.35202690000006,303.35202690000006,303.35202690000006,303.35202690000006,303.35202690000006,303.35202690000006,303.35202690000006,303.35202690000006,303.35202690000006,303.35202690000006,,001,P022,2025_May_13_1658,ConditionRich,2021.2.3,59.934072522326986,
224.75,228.0,41,0.0,Stimuli/Blank.png,0,0.0,0.0,0,98,98,98,,,,,,,,,,,,,224.76473380000243,0.014733800002431963,None,304.1026974999986,304.1026974999986,304.1026974999986,304.1026974999986,304.1026974999986,304.1026974999986,304.1026974999986,304.1026974999986,304.1026974999986,304.1026974999986,,001,P022,2025_May_13_1658,ConditionRich,2021.2.3,59.934072522326986,
228.0,228.75,3,0.75,Stimuli/P016/sun_aiogwnavezqxkzfg.jpg,0,0.0,0.0,0,99,99,99,,,,,,,,,,,,,228.00088530000357,0.0008853000035742298,None,307.33887839999807,307.33887839999807,307.33887839999807,307.33887839999807,307.33887839999807,307.33887839999807,307.33887839999807,307.33887839999807,307.33887839999807,307.33887839999807,,001,P022,2025_May_13_1658,ConditionRich,2021.2.3,59.934072522326986,
228.75,232.0,41,0.0,Stimuli/Blank.png,0,0.0,0.0,0,100,100,100,,,,,,,,,,,,,228.7523874000035,0.0023874000034993514,None,308.0895535000018,308.0895535000018,308.0895535000018,308.0895535000018,308.0895535000018,308.0895535000018,308.0895535000018,308.0895535000018,308.0895535000018,308.0895535000018,,001,P022,2025_May_13_1658,ConditionRich,2021.2.3,59.934072522326986,
232.0,232.75,25,0.75,Stimuli/P016/things_deer_08s.jpg,0,0.0,0.0,0,101,101,101,,,,,,,,,,,,,232.00480799999787,0.004807999997865409,None,311.342432700003,311.342432700003,311.342432700003,311.342432700003,311.342432700003,311.342432700003,311.342432700003,311.342432700003,311.342432700003,311.342432700003,,001,P022,2025_May_13_1658,ConditionRich,2021.2.3,59.934072522326986,
232.75,236.0,41,0.0,Stimuli/Blank.png,0,0.0,0.0,0,102,102,102,,,,,,,,,,,,,232.754981099999,0.004981099998985883,None,312.09308130000136,312.09308130000136,312.09308130000136,312.09308130000136,312.09308130000136,312.09308130000136,312.09308130000136,312.09308130000136,312.09308130000136,312.09308130000136,,001,P022,2025_May_13_1658,ConditionRich,2021.2.3,59.934072522326986,
236.0,236.75,21,0.75,Stimuli/P016/things_arch_08s.jpg,0,0.0,0.0,0,103,103,103,,,,,,,,,,,,,236.00878029999876,0.00878029999876162,None,315.3626538000026,315.3626538000026,315.3626538000026,315.3626538000026,315.3626538000026,315.3626538000026,315.3626538000026,315.3626538000026,315.3626538000026,315.3626538000026,,001,P022,2025_May_13_1658,ConditionRich,2021.2.3,59.934072522326986,
236.75,240.0,41,0.0,Stimuli/Blank.png,0,0.0,0.0,0,104,104,104,,,,,,,,,,,,,236.7758388000002,0.025838800000201445,None,316.11331380000047,316.11331380000047,316.11331380000047,316.11331380000047,316.11331380000047,316.11331380000047,316.11331380000047,316.11331380000047,316.11331380000047,316.11331380000047,,001,P022,2025_May_13_1658,ConditionRich,2021.2.3,59.934072522326986,
240.0,240.75,33,0.75,Stimuli/P016/things_raccoon_08n.jpg,0,0.0,0.0,0,105,105,105,,,,,,,,,,,,,240.0124305999998,0.012430599999788683,None,319.36621249999735,319.36621249999735,319.36621249999735,319.36621249999735,319.36621249999735,319.36621249999735,319.36621249999735,319.36621249999735,319.36621249999735,319.36621249999735,,001,P022,2025_May_13_1658,ConditionRich,2021.2.3,59.934072522326986,
240.75,244.0,41,0.0,Stimuli/Blank.png,1,1.25,2.0,0,106,106,106,,,,,,,,,,,,,240.77945100000215,0.029451000002154615,1,320.13354300000356,320.13354300000356,320.13354300000356,320.13354300000356,320.13354300000356,320.13354300000356,321.3512702000007,322.10194059999776,320.13354300000356,320.13354300000356,1.5676174999971408,001,P022,2025_May_13_1658,ConditionRich,2021.2.3,59.934072522326986,
244.0,244.75,39,0.75,Stimuli/P016/things_window_08s.jpg,0,0.0,0.0,0,107,107,107,,,,,,,,,,,,,244.03240670000378,0.03240670000377577,None,323.3864087000038,323.3864087000038,323.3864087000038,323.3864087000038,323.3864087000038,323.3864087000038,323.3864087000038,323.3864087000038,323.3864087000038,323.3864087000038,,001,P022,2025_May_13_1658,ConditionRich,2021.2.3,59.934072522326986,
244.75,248.0,41,0.0,Stimuli/Blank.png,0,0.0,0.0,0,108,108,108,,,,,,,,,,,,,244.76630060000025,0.016300600000249688,None,324.10370259999763,324.10370259999763,324.10370259999763,324.10370259999763,324.10370259999763,324.10370259999763,324.10370259999763,324.10370259999763,324.10370259999763,324.10370259999763,,001,P022,2025_May_13_1658,ConditionRich,2021.2.3,59.934072522326986,
248.0,248.75,26,0.75,Stimuli/P016/things_face_08s.jpg,0,0.0,0.0,0,109,109,109,,,,,,,,,,,,,248.00448399999732,0.004483999997319188,None,327.35657750000246,327.35657750000246,327.35657750000246,327.35657750000246,327.35657750000246,327.35657750000246,327.35657750000246,327.35657750000246,327.35657750000246,327.35657750000246,,001,P022,2025_May_13_1658,ConditionRich,2021.2.3,59.934072522326986,
248.75,252.0,41,0.0,Stimuli/Blank.png,1,1.25,2.0,0,110,110,110,,,,,,,,,,,,,248.7697640999977,0.019764099997701123,1,328.1072647000037,328.1072647000037,328.1072647000037,328.1072647000037,328.1072647000037,328.1072647000037,329.34166320000077,330.0923397000006,328.1072647000037,328.1072647000037,1.6809520999959204,001,P022,2025_May_13_1658,ConditionRich,2021.2.3,59.934072522326986,
252.0,252.75,16,0.75,Stimuli/P016/sun_bwhuwxazfqwuqhik.jpg,0,0.0,0.0,0,111,111,111,,,,,,,,,,,,,252.00615030000336,0.006150300003355369,None,331.36012189999747,331.36012189999747,331.36012189999747,331.36012189999747,331.36012189999747,331.36012189999747,331.36012189999747,331.36012189999747,331.36012189999747,331.36012189999747,,001,P022,2025_May_13_1658,ConditionRich,2021.2.3,59.934072522326986,
252.75,256.0,41,0.0,Stimuli/Blank.png,0,0.0,0.0,0,112,112,112,,,,,,,,,,,,,252.7735243999996,0.02352439999958733,None,332.11079600000085,332.11079600000085,332.11079600000085,332.11079600000085,332.11079600000085,332.11079600000085,332.11079600000085,332.11079600000085,332.11079600000085,332.11079600000085,,001,P022,2025_May_13_1658,ConditionRich,2021.2.3,59.934072522326986,
256.0,256.75,14,0.75,Stimuli/P016/sun_bpvmkbyglkraoxhh.jpg,0,0.0,0.0,0,113,113,113,,,,,,,,,,,,,256.0099696000034,0.009969600003387313,None,335.36370370000077,335.36370370000077,335.36370370000077,335.36370370000077,335.36370370000077,335.36370370000077,335.36370370000077,335.36370370000077,335.36370370000077,335.36370370000077,,001,P022,2025_May_13_1658,ConditionRich,2021.2.3,59.934072522326986,
256.75,260.0,41,0.0,Stimuli/Blank.png,1,2.25,3.0,0,114,114,114,,,,,,,,,,,,,256.7790085000015,0.029008500001509674,1,336.1310126000026,336.1310126000026,336.1310126000026,336.1310126000026,336.1310126000026,336.1310126000026,338.3663106000022,339.1169680000021,336.1310126000026,336.1310126000026,2.629213100000925,001,P022,2025_May_13_1658,ConditionRich,2021.2.3,59.934072522326986,
260.0,260.75,38,0.75,Stimuli/P016/things_trumpet_08s.jpg,0,0.0,0.0,0,115,115,115,,,,,,,,,,,,,260.02984010000364,0.029840100003639236,None,339.383897300002,339.383897300002,339.383897300002,339.383897300002,339.383897300002,339.383897300002,339.383897300002,339.383897300002,339.383897300002,339.383897300002,,001,P022,2025_May_13_1658,ConditionRich,2021.2.3,59.934072522326986,
260.75,264.0,41,0.0,Stimuli/Blank.png,0,0.0,0.0,0,116,116,116,,,,,,,,,,,,,260.77980930000194,0.029809300001943484,None,340.11785480000253,340.11785480000253,340.11785480000253,340.11785480000253,340.11785480000253,340.11785480000253,340.11785480000253,340.11785480000253,340.11785480000253,340.11785480000253,,001,P022,2025_May_13_1658,ConditionRich,2021.2.3,59.934072522326986,
264.0,264.75,1,0.75,Stimuli/P016/sun_aacpzgqrortyhyss.jpg,0,0.0,0.0,0,117,117,117,,,,,,,,,,,,,264.00002790000144,2.7900001441594213e-05,None,343.35405880000326,343.35405880000326,343.35405880000326,343.35405880000326,343.35405880000326,343.35405880000326,343.35405880000326,343.35405880000326,343.35405880000326,343.35405880000326,,001,P022,2025_May_13_1658,ConditionRich,2021.2.3,59.934072522326986,
264.75,268.0,41,0.0,Stimuli/Blank.png,1,1.25,2.0,0,118,118,118,,,,,,,,,,,,,264.7690638999993,0.019063899999309797,1,344.1214069999987,344.1214069999987,344.1214069999987,344.1214069999987,344.1214069999987,344.1214069999987,345.3558489999996,346.10649340000236,344.1214069999987,344.1214069999987,1.5998038000034285,001,P022,2025_May_13_1658,ConditionRich,2021.2.3,59.934072522326986,
268.0,268.75,17,0.75,Stimuli/P016/sun_bxhbltvqnpaciuzt.jpg,0,0.0,0.0,0,119,119,119,,,,,,,,,,,,,268.0197851999983,0.019785199998295866,None,347.35759520000283,347.35759520000283,347.35759520000283,347.35759520000283,347.35759520000283,347.35759520000283,347.35759520000283,347.35759520000283,347.35759520000283,347.35759520000283,,001,P022,2025_May_13_1658,ConditionRich,2021.2.3,59.934072522326986,
268.75,272.0,41,0.0,Stimuli/Blank.png,0,0.0,0.0,0,120,120,120,,,,,,,,,,,,,268.7547380000033,0.004738000003271736,None,348.09159910000017,348.09159910000017,348.09159910000017,348.09159910000017,348.09159910000017,348.09159910000017,348.09159910000017,348.09159910000017,348.09159910000017,348.09159910000017,,001,P022,2025_May_13_1658,ConditionRich,2021.2.3,59.934072522326986,
272.0,272.75,20,0.75,Stimuli/P016/sun_bzmxulijbnmshodq.jpg,1,0.0,0.75,0,121,121,121,,,,,,,,,,,,,272.00646000000415,0.006460000004153699,1,351.3611407999997,351.3611407999997,351.3611407999997,351.3611407999997,351.3611407999997,351.3611407999997,351.3611407999997,352.07842620000156,351.3611407999997,351.3611407999997,0.3871004999964498,001,P022,2025_May_13_1658,ConditionRich,2021.2.3,59.934072522326986,
272.75,276.0,41,0.0,Stimuli/Blank.png,0,0.0,0.0,0,122,122,122,,,,,,,,,,,,,272.7744929000037,0.024492900003679097,None,352.1117891000031,352.1117891000031,352.1117891000031,352.1117891000031,352.1117891000031,352.1117891000031,352.1117891000031,352.1117891000031,352.1117891000031,352.1117891000031,,001,P022,2025_May_13_1658,ConditionRich,2021.2.3,59.934072522326986,
276.0,292.0,0,0.0,Stimuli/Blank.png,1,12.0,12.75,0,123,123,123,,,,,,,,,,,,,276.00999299999967,0.009992999999667518,1,355.34799329999805,355.34799329999805,355.34799329999805,355.34799329999805,355.34799329999805,355.34799329999805,367.3252618999977,368.0759101000003,355.34799329999805,355.34799329999805,12.58847650000098,001,P022,2025_May_13_1658,ConditionRich,2021.2.3,59.934072522326986,
292.0,292.75,37,0.75,Stimuli/P016/things_swizzle_stick_08s.jpg,1,0.0,0.75,0,124,124,124,,,,,,,,,,,,,292.01054860000295,0.01054860000294866,1,371.3621590000039,371.3621590000039,371.3621590000039,371.3621590000039,371.3621590000039,371.3621590000039,371.3621590000039,372.0961326999968,371.3621590000039,371.3621590000039,0.4423480999976164,001,P022,2025_May_13_1658,ConditionRich,2021.2.3,59.934072522326986,
292.75,296.0,41,0.0,Stimuli/Blank.png,0,0.0,0.0,0,125,125,125,,,,,,,,,,,,,292.7748236999978,0.02482369999779621,None,372.11280960000295,372.11280960000295,372.11280960000295,372.11280960000295,372.11280960000295,372.11280960000295,372.11280960000295,372.11280960000295,372.11280960000295,372.11280960000295,,001,P022,2025_May_13_1658,ConditionRich,2021.2.3,59.934072522326986,
296.0,296.75,7,0.75,Stimuli/P016/sun_aqdfrmtvewaapuqs.jpg,0,0.0,0.0,0,126,126,126,,,,,,,,,,,,,296.01161729999876,0.011617299998761155,None,375.3656942000016,375.3656942000016,375.3656942000016,375.3656942000016,375.3656942000016,375.3656942000016,375.3656942000016,375.3656942000016,375.3656942000016,375.3656942000016,,001,P022,2025_May_13_1658,ConditionRich,2021.2.3,59.934072522326986,
296.75,300.0,41,0.0,Stimuli/Blank.png,1,1.25,2.0,0,127,127,127,,,,,,,,,,,,,296.77970600000117,0.02970600000116974,1,376.11635009999736,376.11635009999736,376.11635009999736,376.11635009999736,376.11635009999736,376.11635009999736,377.3507944000012,378.10143029999745,376.11635009999736,376.11635009999736,1.6198872000022675,001,P022,2025_May_13_1658,ConditionRich,2021.2.3,59.934072522326986,
300.0,300.75,32,0.75,Stimuli/P016/things_pheasant_08s.jpg,0,0.0,0.0,0,128,128,128,,,,,,,,,,,,,299.9985538000037,-0.001446199996280484,None,379.3525382000007,379.3525382000007,379.3525382000007,379.3525382000007,379.3525382000007,379.3525382000007,379.3525382000007,379.3525382000007,379.3525382000007,379.3525382000007,,001,P022,2025_May_13_1658,ConditionRich,2021.2.3,59.934072522326986,
300.75,304.0,41,0.0,Stimuli/Blank.png,0,0.0,0.0,0,129,129,129,,,,,,,,,,,,,300.7650125,0.015012500000011642,None,380.10318859999825,380.10318859999825,380.10318859999825,380.10318859999825,380.10318859999825,380.10318859999825,380.10318859999825,380.10318859999825,380.10318859999825,380.10318859999825,,001,P022,2025_May_13_1658,ConditionRich,2021.2.3,59.934072522326986,
304.0,304.75,5,0.75,Stimuli/P016/sun_ajgmxbrxdpmsaext.jpg,0,0.0,0.0,0,130,130,130,,,,,,,,,,,,,304.00128109999787,0.0012810999978682958,None,383.3561908999982,383.3561908999982,383.3561908999982,383.3561908999982,383.3561908999982,383.3561908999982,383.3561908999982,383.3561908999982,383.3561908999982,383.3561908999982,,001,P022,2025_May_13_1658,ConditionRich,2021.2.3,59.934072522326986,
304.75,308.0,41,0.0,Stimuli/Blank.png,0,0.0,0.0,0,131,131,131,,,,,,,,,,,,,304.7691396000009,0.019139600000926293,None,384.10674629999994,384.10674629999994,384.10674629999994,384.10674629999994,384.10674629999994,384.10674629999994,384.10674629999994,384.10674629999994,384.10674629999994,384.10674629999994,,001,P022,2025_May_13_1658,ConditionRich,2021.2.3,59.934072522326986,
308.0,308.75,8,0.75,Stimuli/P016/sun_arldxotvfucvuudk.jpg,0,0.0,0.0,0,132,132,132,,,,,,,,,,,,,308.0047771000027,0.004777100002684165,None,387.3429329999999,387.3429329999999,387.3429329999999,387.3429329999999,387.3429329999999,387.3429329999999,387.3429329999999,387.3429329999999,387.3429329999999,387.3429329999999,,001,P022,2025_May_13_1658,ConditionRich,2021.2.3,59.934072522326986,
308.75,312.0,41,0.0,Stimuli/Blank.png,0,0.0,0.0,0,133,133,133,,,,,,,,,,,,,308.7567493000024,0.0067493000024114735,None,388.0936013000028,388.0936013000028,388.0936013000028,388.0936013000028,388.0936013000028,388.0936013000028,388.0936013000028,388.0936013000028,388.0936013000028,388.0936013000028,,001,P022,2025_May_13_1658,ConditionRich,2021.2.3,59.934072522326986,
312.0,312.75,11,0.75,Stimuli/P016/sun_bnwmcjuinqbdsbho.jpg,0,0.0,0.0,0,134,134,134,,,,,,,,,,,,,312.0084713000033,0.008471300003293436,None,391.34647869999753,391.34647869999753,391.34647869999753,391.34647869999753,391.34647869999753,391.34647869999753,391.34647869999753,391.34647869999753,391.34647869999753,391.34647869999753,,001,P022,2025_May_13_1658,ConditionRich,2021.2.3,59.934072522326986,
312.75,316.0,41,0.0,Stimuli/Blank.png,0,0.0,0.0,0,135,135,135,,,,,,,,,,,,,312.7606003999972,0.010600399997201748,None,392.11384800000087,392.11384800000087,392.11384800000087,392.11384800000087,392.11384800000087,392.11384800000087,392.11384800000087,392.11384800000087,392.11384800000087,392.11384800000087,,001,P022,2025_May_13_1658,ConditionRich,2021.2.3,59.934072522326986,
316.0,316.75,29,0.75,Stimuli/P016/things_mouse1_08s.jpg,0,0.0,0.0,0,136,136,136,,,,,,,,,,,,,316.0287376999986,0.028737699998600874,None,395.3666661000025,395.3666661000025,395.3666661000025,395.3666661000025,395.3666661000025,395.3666661000025,395.3666661000025,395.3666661000025,395.3666661000025,395.3666661000025,,001,P022,2025_May_13_1658,ConditionRich,2021.2.3,59.934072522326986,
316.75,320.0,41,0.0,Stimuli/Blank.png,0,0.0,0.0,0,137,137,137,,,,,,,,,,,,,316.76547610000125,0.015476100001251325,None,396.11736029999884,396.11736029999884,396.11736029999884,396.11736029999884,396.11736029999884,396.11736029999884,396.11736029999884,396.11736029999884,396.11736029999884,396.11736029999884,,001,P022,2025_May_13_1658,ConditionRich,2021.2.3,59.934072522326986,
320.0,320.75,9,0.75,Stimuli/P016/sun_bbdgftzhpkaklkll.jpg,0,0.0,0.0,0,138,138,138,,,,,,,,,,,,,320.0163593000034,0.016359300003387034,None,399.35355290000007,399.35355290000007,399.35355290000007,399.35355290000007,399.35355290000007,399.35355290000007,399.35355290000007,399.35355290000007,399.35355290000007,399.35355290000007,,001,P022,2025_May_13_1658,ConditionRich,2021.2.3,59.934072522326986,
320.75,324.0,41,0.0,Stimuli/Blank.png,0,0.0,0.0,0,139,139,139,,,,,,,,,,,,,320.7494598999983,-0.0005401000016718172,None,400.08754339999723,400.08754339999723,400.08754339999723,400.08754339999723,400.08754339999723,400.08754339999723,400.08754339999723,400.08754339999723,400.08754339999723,400.08754339999723,,001,P022,2025_May_13_1658,ConditionRich,2021.2.3,59.934072522326986,
324.0,324.75,31,0.75,Stimuli/P016/things_outlet_08s.jpg,0,0.0,0.0,0,140,140,140,,,,,,,,,,,,,324.00450689999707,0.004506899997068103,None,403.35709679999854,403.35709679999854,403.35709679999854,403.35709679999854,403.35709679999854,403.35709679999854,403.35709679999854,403.35709679999854,403.35709679999854,403.35709679999854,,001,P022,2025_May_13_1658,ConditionRich,2021.2.3,59.934072522326986,
324.75,328.0,41,0.0,Stimuli/Blank.png,0,0.0,0.0,0,141,141,141,,,,,,,,,,,,,324.76968119999947,0.019681199999467935,None,404.1077544,404.1077544,404.1077544,404.1077544,404.1077544,404.1077544,404.1077544,404.1077544,404.1077544,404.1077544,,001,P022,2025_May_13_1658,ConditionRich,2021.2.3,59.934072522326986,
328.0,328.75,27,0.75,Stimuli/P016/things_girl_08s.jpg,0,0.0,0.0,0,142,142,142,,,,,,,,,,,,,328.0059820000024,0.005982000002404675,None,407.36065609999787,407.36065609999787,407.36065609999787,407.36065609999787,407.36065609999787,407.36065609999787,407.36065609999787,407.36065609999787,407.36065609999787,407.36065609999787,,001,P022,2025_May_13_1658,ConditionRich,2021.2.3,59.934072522326986,
328.75,332.0,41,0.0,Stimuli/Blank.png,0,0.0,0.0,0,143,143,143,,,,,,,,,,,,,328.77454520000174,0.02454520000173943,None,408.11130299999786,408.11130299999786,408.11130299999786,408.11130299999786,408.11130299999786,408.11130299999786,408.11130299999786,408.11130299999786,408.11130299999786,408.11130299999786,,001,P022,2025_May_13_1658,ConditionRich,2021.2.3,59.934072522326986,
332.0,332.75,19,0.75,Stimuli/P016/sun_bzhwvgrzvttqoexa.jpg,0,0.0,0.0,0,144,144,144,,,,,,,,,,,,,332.01005189999705,0.010051899997051805,None,411.34750239999994,411.34750239999994,411.34750239999994,411.34750239999994,411.34750239999994,411.34750239999994,411.34750239999994,411.34750239999994,411.34750239999994,411.34750239999994,,001,P022,2025_May_13_1658,ConditionRich,2021.2.3,59.934072522326986,
332.75,336.0,41,0.0,Stimuli/Blank.png,0,0.0,0.0,0,145,145,145,,,,,,,,,,,,,332.7605563000034,0.010556300003372598,None,412.09815569999773,412.09815569999773,412.09815569999773,412.09815569999773,412.09815569999773,412.09815569999773,412.09815569999773,412.09815569999773,412.09815569999773,412.09815569999773,,001,P022,2025_May_13_1658,ConditionRich,2021.2.3,59.934072522326986,
336.0,336.75,34,0.75,Stimuli/P016/things_shower_cap_08s.jpg,0,0.0,0.0,0,146,146,146,,,,,,,,,,,,,336.01302649999707,0.013026499997067731,None,415.35102709999774,415.35102709999774,415.35102709999774,415.35102709999774,415.35102709999774,415.35102709999774,415.35102709999774,415.35102709999774,415.35102709999774,415.35102709999774,,001,P022,2025_May_13_1658,ConditionRich,2021.2.3,59.934072522326986,
336.75,340.0,41,0.0,Stimuli/Blank.png,0,0.0,0.0,0,147,147,147,,,,,,,,,,,,,336.76494660000026,0.014946600000257604,None,416.1016984000016,416.1016984000016,416.1016984000016,416.1016984000016,416.1016984000016,416.1016984000016,416.1016984000016,416.1016984000016,416.1016984000016,416.1016984000016,,001,P022,2025_May_13_1658,ConditionRich,2021.2.3,59.934072522326986,
340.0,340.75,22,0.75,Stimuli/P016/things_baby_08s.jpg,0,0.0,0.0,0,148,148,148,,,,,,,,,,,,,340.00050960000226,0.000509600002260413,None,419.3384995000015,419.3384995000015,419.3384995000015,419.3384995000015,419.3384995000015,419.3384995000015,419.3384995000015,419.3384995000015,419.3384995000015,419.3384995000015,,001,P022,2025_May_13_1658,ConditionRich,2021.2.3,59.934072522326986,
340.75,344.0,41,0.0,Stimuli/Blank.png,0,0.0,0.0,0,149,149,149,,,,,,,,,,,,,340.7505256000004,0.0005256000004010275,None,420.0885602999988,420.0885602999988,420.0885602999988,420.0885602999988,420.0885602999988,420.0885602999988,420.0885602999988,420.0885602999988,420.0885602999988,420.0885602999988,,001,P022,2025_May_13_1658,ConditionRich,2021.2.3,59.934072522326986,
344.0,344.75,28,0.75,Stimuli/P016/things_latte_08s.jpg,0,0.0,0.0,0,150,150,150,,,,,,,,,,,,,344.0040023000038,0.004002300003776327,None,423.358106599997,423.358106599997,423.358106599997,423.358106599997,423.358106599997,423.358106599997,423.358106599997,423.358106599997,423.358106599997,423.358106599997,,001,P022,2025_May_13_1658,ConditionRich,2021.2.3,59.934072522326986,
344.75,348.0,41,0.0,Stimuli/Blank.png,1,0.25,1.0,0,151,151,151,,,,,,,,,,,,,344.77098560000013,0.020985600000130944,1,424.1087828000018,424.1087828000018,424.1087828000018,424.1087828000018,424.1087828000018,424.1087828000018,424.3423034000007,425.09301330000017,424.1087828000018,424.1087828000018,0.6008154000010109,001,P022,2025_May_13_1658,ConditionRich,2021.2.3,59.934072522326986,
348.0,348.75,10,0.75,Stimuli/P016/sun_bfojpvrlsrtfyzio.jpg,0,0.0,0.0,0,152,152,152,,,,,,,,,,,,,348.00684270000056,0.006842700000561308,None,427.3616436000011,427.3616436000011,427.3616436000011,427.3616436000011,427.3616436000011,427.3616436000011,427.3616436000011,427.3616436000011,427.3616436000011,427.3616436000011,,001,P022,2025_May_13_1658,ConditionRich,2021.2.3,59.934072522326986,
348.75,352.0,41,0.0,Stimuli/Blank.png,0,0.0,0.0,0,153,153,153,,,,,,,,,,,,,348.7748449999999,0.024844999999913853,None,428.112303300004,428.112303300004,428.112303300004,428.112303300004,428.112303300004,428.112303300004,428.112303300004,428.112303300004,428.112303300004,428.112303300004,,001,P022,2025_May_13_1658,ConditionRich,2021.2.3,59.934072522326986,
352.0,352.75,4,0.75,Stimuli/P016/sun_aiwuqxdqzftsfyeg.jpg,1,0.0,0.75,0,154,154,154,,,,,,,,,,,,,352.01077120000264,0.01077120000263676,1,431.3651946000027,431.3651946000027,431.3651946000027,431.3651946000027,431.3651946000027,431.3651946000027,431.3651946000027,432.0824821999995,431.3651946000027,431.3651946000027,0.585156499997538,001,P022,2025_May_13_1658,ConditionRich,2021.2.3,59.934072522326986,
352.75,356.0,41,0.0,Stimuli/Blank.png,0,0.0,0.0,0,155,155,155,,,,,,,,,,,,,352.7782961999983,0.02829619999829447,None,432.1158467999994,432.1158467999994,432.1158467999994,432.1158467999994,432.1158467999994,432.1158467999994,432.1158467999994,432.1158467999994,432.1158467999994,432.1158467999994,,001,P022,2025_May_13_1658,ConditionRich,2021.2.3,59.934072522326986,
356.0,356.75,2,0.75,Stimuli/P016/sun_agzfkftryitnqpxc.jpg,0,0.0,0.0,0,156,156,156,,,,,,,,,,,,,356.013904600004,0.01390460000402527,None,435.35203360000014,435.35203360000014,435.35203360000014,435.35203360000014,435.35203360000014,435.35203360000014,435.35203360000014,435.35203360000014,435.35203360000014,435.35203360000014,,001,P022,2025_May_13_1658,ConditionRich,2021.2.3,59.934072522326986,
356.75,360.0,41,0.0,Stimuli/Blank.png,0,0.0,0.0,0,157,157,157,,,,,,,,,,,,,356.7654283000011,0.015428300001076423,None,436.1027071999997,436.1027071999997,436.1027071999997,436.1027071999997,436.1027071999997,436.1027071999997,436.1027071999997,436.1027071999997,436.1027071999997,436.1027071999997,,001,P022,2025_May_13_1658,ConditionRich,2021.2.3,59.934072522326986,
360.0,360.75,23,0.75,Stimuli/P016/things_boy_08s.jpg,0,0.0,0.0,0,158,158,158,,,,,,,,,,,,,360.0017366000029,0.0017366000029142015,None,439.3555836000014,439.3555836000014,439.3555836000014,439.3555836000014,439.3555836000014,439.3555836000014,439.3555836000014,439.3555836000014,439.3555836000014,439.3555836000014,,001,P022,2025_May_13_1658,ConditionRich,2021.2.3,59.934072522326986,
360.75,364.0,41,0.0,Stimuli/Blank.png,0,0.0,0.0,0,159,159,159,,,,,,,,,,,,,360.768736799997,0.01873679999698652,None,440.10624069999903,440.10624069999903,440.10624069999903,440.10624069999903,440.10624069999903,440.10624069999903,440.10624069999903,440.10624069999903,440.10624069999903,440.10624069999903,,001,P022,2025_May_13_1658,ConditionRich,2021.2.3,59.934072522326986,
364.0,364.75,13,0.75,Stimuli/P016/sun_bphvjnowixlryxot.jpg,0,0.0,0.0,0,160,160,160,,,,,,,,,,,,,364.00466649999726,0.004666499997256324,None,443.3424346000029,443.3424346000029,443.3424346000029,443.3424346000029,443.3424346000029,443.3424346000029,443.3424346000029,443.3424346000029,443.3424346000029,443.3424346000029,,001,P022,2025_May_13_1658,ConditionRich,2021.2.3,59.934072522326986,
364.75,368.0,41,0.0,Stimuli/Blank.png,0,0.0,0.0,0,161,161,161,,,,,,,,,,,,,364.7556388000012,0.005638800001179334,None,444.0931004000013,444.0931004000013,444.0931004000013,444.0931004000013,444.0931004000013,444.0931004000013,444.0931004000013,444.0931004000013,444.0931004000013,444.0931004000013,,001,P022,2025_May_13_1658,ConditionRich,2021.2.3,59.934072522326986,
368.0,368.75,12,0.75,Stimuli/P016/sun_boffixsnbbloarty.jpg,0,0.0,0.0,0,162,162,162,,,,,,,,,,,,,368.0089603000015,0.008960300001490396,None,447.36265920000005,447.36265920000005,447.36265920000005,447.36265920000005,447.36265920000005,447.36265920000005,447.36265920000005,447.36265920000005,447.36265920000005,447.36265920000005,,001,P022,2025_May_13_1658,ConditionRich,2021.2.3,59.934072522326986,
368.75,372.0,41,0.0,Stimuli/Blank.png,0,0.0,0.0,0,163,163,163,,,,,,,,,,,,,368.775733100003,0.02573310000298079,None,448.11329999999725,448.11329999999725,448.11329999999725,448.11329999999725,448.11329999999725,448.11329999999725,448.11329999999725,448.11329999999725,448.11329999999725,448.11329999999725,,001,P022,2025_May_13_1658,ConditionRich,2021.2.3,59.934072522326986,
372.0,388.0,0,0.0,Stimuli/Blank.png,1,9.0,9.75,0,164,164,164,,,,,,,,,,,,,372.01162170000316,0.011621700003161095,1,451.3496234999984,451.3496234999984,451.3496234999984,451.3496234999984,451.3496234999984,451.3496234999984,460.3407936000003,461.09146429999964,451.3496234999984,451.3496234999984,9.40759160000016,001,P022,2025_May_13_1658,ConditionRich,2021.2.3,59.934072522326986,
