eventStartTime,eventEndTime,eventCond,imSize,imFile,responseEvent,fixRespStart,fixRespEnd,Events.thisRepN,Events.thisTrialN,Events.thisN,Events.thisIndex,Instructions.started,Instructions.stopped,participantReadyResponse.keys,participantReadyResponse.rt,participantReadyResponse.started,participantReadyResponse.stopped,startWaitforTrigger,triggerResponse.keys,triggerResponse.rt,triggerResponse.started,triggerResponse.stopped,globalTimer,actualStartTime,startTimingDiff,participantResponse.keys,participantResponse.started,participantResponse.stopped,image.started,image.stopped,fixationOutside.started,fixationOutside.stopped,fixationResponse.started,fixationResponse.stopped,fixationInside.started,fixationInside.stopped,participantResponse.rt,session,participant,date,expName,psychopyVersion,frameRate,
,,,,,,,,,,,,9.950428500000271,None,1,4.330796800000826,9.950428500000271,None,,,,,,,,,,,,,,,,,,,,,009,P022,2025_May_13_1809,ConditionRich,2021.2.3,59.91830738196662,
,,,,,,,,,,,,,,,,,,14.290474900000845,5,13.156475600000704,14.303891299998213,None,,,,,,,,,,,,,,,,009,P022,2025_May_13_1809,ConditionRich,2021.2.3,59.91830738196662,
0.0,4.0,0,0.0,Stimuli/Blank.png,0,0,0.0,0,0,0,0,,,,,,,,,,,,27.46905439999682,0.06477129999984754,0.06477129999984754,None,27.5489355000027,None,27.5489355000027,None,27.5489355000027,None,27.5489355000027,27.5489355000027,27.5489355000027,None,,009,P022,2025_May_13_1809,ConditionRich,2021.2.3,59.91830738196662,
4.0,4.75,5,0.75,Stimuli/P016/sun_ajgmxbrxdpmsaext.jpg,0,0,0.0,0,1,1,1,,,,,,,,,,,,,4.0052901999952155,0.0052901999952155165,None,31.50270499999897,31.50270499999897,31.50270499999897,31.50270499999897,31.50270499999897,31.50270499999897,31.50270499999897,31.50270499999897,31.50270499999897,31.50270499999897,,009,P022,2025_May_13_1809,ConditionRich,2021.2.3,59.91830738196662,
4.75,5.0,41,0.0,Stimuli/Blank.png,0,0,0.0,0,2,2,2,,,,,,,,,,,,,4.769402399993851,0.01940239999385085,None,32.25337459999719,32.25337459999719,32.25337459999719,32.25337459999719,32.25337459999719,32.25337459999719,32.25337459999719,32.25337459999719,32.25337459999719,32.25337459999719,,009,P022,2025_May_13_1809,ConditionRich,2021.2.3,59.91830738196662,
5.0,5.75,5,0.75,Stimuli/P016/sun_ajgmxbrxdpmsaext.jpg,0,0,0.0,0,3,3,3,,,,,,,,,,,,,5.003397499996936,0.0033974999969359487,None,32.48663410000154,32.48663410000154,32.48663410000154,32.48663410000154,32.48663410000154,32.48663410000154,32.48663410000154,32.48663410000154,32.48663410000154,32.48663410000154,,009,P022,2025_May_13_1809,ConditionRich,2021.2.3,59.91830738196662,
5.75,6.0,41,0.0,Stimuli/Blank.png,0,0,0.0,0,4,4,4,,,,,,,,,,,,,5.755612699998892,0.005612699998891912,None,33.237322799999674,33.237322799999674,33.237322799999674,33.237322799999674,33.237322799999674,33.237322799999674,33.237322799999674,33.237322799999674,33.237322799999674,33.237322799999674,,009,P022,2025_May_13_1809,ConditionRich,2021.2.3,59.91830738196662,
6.0,6.75,5,0.75,Stimuli/P016/sun_ajgmxbrxdpmsaext.jpg,0,0,0.0,0,5,5,5,,,,,,,,,,,,,6.0045838999940315,0.004583899994031526,None,33.50420250000025,33.50420250000025,33.50420250000025,33.50420250000025,33.50420250000025,33.50420250000025,33.50420250000025,33.50420250000025,33.50420250000025,33.50420250000025,,009,P022,2025_May_13_1809,ConditionRich,2021.2.3,59.91830738196662,
6.75,7.0,41,0.0,Stimuli/Blank.png,0,0,0.0,0,6,6,6,,,,,,,,,,,,,6.771986999992805,0.021986999992805067,None,34.25494659999822,34.25494659999822,34.25494659999822,34.25494659999822,34.25494659999822,34.25494659999822,34.25494659999822,34.25494659999822,34.25494659999822,34.25494659999822,,009,P022,2025_May_13_1809,ConditionRich,2021.2.3,59.91830738196662,
7.0,7.75,5,0.75,Stimuli/P016/sun_ajgmxbrxdpmsaext.jpg,0,0,0.0,0,7,7,7,,,,,,,,,,,,,7.005330499996489,0.0053304999964893796,None,34.48840629999904,34.48840629999904,34.48840629999904,34.48840629999904,34.48840629999904,34.48840629999904,34.48840629999904,34.48840629999904,34.48840629999904,34.48840629999904,,009,P022,2025_May_13_1809,ConditionRich,2021.2.3,59.91830738196662,
7.75,8.0,41,0.0,Stimuli/Blank.png,0,0,0.0,0,8,8,8,,,,,,,,,,,,,7.755531999995583,0.005531999995582737,None,35.23907329999929,35.23907329999929,35.23907329999929,35.23907329999929,35.23907329999929,35.23907329999929,35.23907329999929,35.23907329999929,35.23907329999929,35.23907329999929,,009,P022,2025_May_13_1809,ConditionRich,2021.2.3,59.91830738196662,
8.0,8.75,17,0.75,Stimuli/P016/sun_bxhbltvqnpaciuzt.jpg,0,0,0.0,0,9,9,9,,,,,,,,,,,,,8.005793299998913,0.005793299998913426,None,35.506007600000885,35.506007600000885,35.506007600000885,35.506007600000885,35.506007600000885,35.506007600000885,35.506007600000885,35.506007600000885,35.506007600000885,35.506007600000885,,009,P022,2025_May_13_1809,ConditionRich,2021.2.3,59.91830738196662,
8.75,9.0,41,0.0,Stimuli/Blank.png,0,0,0.0,0,10,10,10,,,,,,,,,,,,,8.773150799999712,0.023150799999712035,None,36.25662690000172,36.25662690000172,36.25662690000172,36.25662690000172,36.25662690000172,36.25662690000172,36.25662690000172,36.25662690000172,36.25662690000172,36.25662690000172,,009,P022,2025_May_13_1809,ConditionRich,2021.2.3,59.91830738196662,
9.0,9.75,17,0.75,Stimuli/P016/sun_bxhbltvqnpaciuzt.jpg,0,0,0.0,0,11,11,11,,,,,,,,,,,,,9.007970999999088,0.007970999999088235,None,36.506955999997444,36.506955999997444,36.506955999997444,36.506955999997444,36.506955999997444,36.506955999997444,36.506955999997444,36.506955999997444,36.506955999997444,36.506955999997444,,009,P022,2025_May_13_1809,ConditionRich,2021.2.3,59.91830738196662,
9.75,10.0,41,0.0,Stimuli/Blank.png,0,0,0.0,0,12,12,12,,,,,,,,,,,,,9.775164699996822,0.025164699996821582,None,37.25752579999971,37.25752579999971,37.25752579999971,37.25752579999971,37.25752579999971,37.25752579999971,37.25752579999971,37.25752579999971,37.25752579999971,37.25752579999971,,009,P022,2025_May_13_1809,ConditionRich,2021.2.3,59.91830738196662,
10.0,10.75,17,0.75,Stimuli/P016/sun_bxhbltvqnpaciuzt.jpg,0,0,0.0,0,13,13,13,,,,,,,,,,,,,10.007586299994728,0.007586299994727597,None,37.49106749999919,37.49106749999919,37.49106749999919,37.49106749999919,37.49106749999919,37.49106749999919,37.49106749999919,37.49106749999919,37.49106749999919,37.49106749999919,,009,P022,2025_May_13_1809,ConditionRich,2021.2.3,59.91830738196662,
10.75,11.0,41,0.0,Stimuli/Blank.png,0,0,0.0,0,14,14,14,,,,,,,,,,,,,10.7588420999964,0.008842099996400066,None,38.24172700000054,38.24172700000054,38.24172700000054,38.24172700000054,38.24172700000054,38.24172700000054,38.24172700000054,38.24172700000054,38.24172700000054,38.24172700000054,,009,P022,2025_May_13_1809,ConditionRich,2021.2.3,59.91830738196662,
11.0,11.75,17,0.75,Stimuli/P016/sun_bxhbltvqnpaciuzt.jpg,0,0,0.0,0,15,15,15,,,,,,,,,,,,,11.009425299998838,0.009425299998838454,None,38.508624100002635,38.508624100002635,38.508624100002635,38.508624100002635,38.508624100002635,38.508624100002635,38.508624100002635,38.508624100002635,38.508624100002635,38.508624100002635,,009,P022,2025_May_13_1809,ConditionRich,2021.2.3,59.91830738196662,
11.75,12.0,41,0.0,Stimuli/Blank.png,0,0,0.0,0,16,16,16,,,,,,,,,,,,,11.778522399996291,0.028522399996290915,None,39.27600430000166,39.27600430000166,39.27600430000166,39.27600430000166,39.27600430000166,39.27600430000166,39.27600430000166,39.27600430000166,39.27600430000166,39.27600430000166,,009,P022,2025_May_13_1809,ConditionRich,2021.2.3,59.91830738196662,
12.0,12.75,26,0.75,Stimuli/P016/things_face_08s.jpg,0,0,0.0,0,17,17,17,,,,,,,,,,,,,12.025855499996396,0.025855499996396247,None,39.50950749999902,39.50950749999902,39.50950749999902,39.50950749999902,39.50950749999902,39.50950749999902,39.50950749999902,39.50950749999902,39.50950749999902,39.50950749999902,,009,P022,2025_May_13_1809,ConditionRich,2021.2.3,59.91830738196662,
12.75,13.0,41,0.0,Stimuli/Blank.png,0,0,0.0,0,18,18,18,,,,,,,,,,,,,12.76086039999791,0.010860399997909553,None,40.243492100002186,40.243492100002186,40.243492100002186,40.243492100002186,40.243492100002186,40.243492100002186,40.243492100002186,40.243492100002186,40.243492100002186,40.243492100002186,,009,P022,2025_May_13_1809,ConditionRich,2021.2.3,59.91830738196662,
13.0,13.75,26,0.75,Stimuli/P016/things_face_08s.jpg,0,0,0.0,0,19,19,19,,,,,,,,,,,,,13.010762399993837,0.01076239999383688,None,40.51039740000124,40.51039740000124,40.51039740000124,40.51039740000124,40.51039740000124,40.51039740000124,40.51039740000124,40.51039740000124,40.51039740000124,40.51039740000124,,009,P022,2025_May_13_1809,ConditionRich,2021.2.3,59.91830738196662,
13.75,14.0,41,0.0,Stimuli/Blank.png,0,0,0.0,0,20,20,20,,,,,,,,,,,,,13.778463199996622,0.02846319999662228,None,41.26105919999827,41.26105919999827,41.26105919999827,41.26105919999827,41.26105919999827,41.26105919999827,41.26105919999827,41.26105919999827,41.26105919999827,41.26105919999827,,009,P022,2025_May_13_1809,ConditionRich,2021.2.3,59.91830738196662,
14.0,14.75,26,0.75,Stimuli/P016/things_face_08s.jpg,0,0,0.0,0,21,21,21,,,,,,,,,,,,,14.013932999994722,0.013932999994722195,None,41.511281099999906,41.511281099999906,41.511281099999906,41.511281099999906,41.511281099999906,41.511281099999906,41.511281099999906,41.511281099999906,41.511281099999906,41.511281099999906,,009,P022,2025_May_13_1809,ConditionRich,2021.2.3,59.91830738196662,
14.75,15.0,41,0.0,Stimuli/Blank.png,0,0,0.0,0,22,22,22,,,,,,,,,,,,,14.779719199999818,0.029719199999817647,None,42.27863369999977,42.27863369999977,42.27863369999977,42.27863369999977,42.27863369999977,42.27863369999977,42.27863369999977,42.27863369999977,42.27863369999977,42.27863369999977,,009,P022,2025_May_13_1809,ConditionRich,2021.2.3,59.91830738196662,
15.0,15.75,26,0.75,Stimuli/P016/things_face_08s.jpg,0,0,0.0,0,23,23,23,,,,,,,,,,,,,15.029853499996534,0.029853499996534083,None,42.528848399997514,42.528848399997514,42.528848399997514,42.528848399997514,42.528848399997514,42.528848399997514,42.528848399997514,42.528848399997514,42.528848399997514,42.528848399997514,,009,P022,2025_May_13_1809,ConditionRich,2021.2.3,59.91830738196662,
15.75,16.0,41,0.0,Stimuli/Blank.png,0,0,0.0,0,24,24,24,,,,,,,,,,,,,15.779593899998872,0.029593899998872075,None,43.26283919999696,43.26283919999696,43.26283919999696,43.26283919999696,43.26283919999696,43.26283919999696,43.26283919999696,43.26283919999696,43.26283919999696,43.26283919999696,,009,P022,2025_May_13_1809,ConditionRich,2021.2.3,59.91830738196662,
16.0,16.75,35,0.75,Stimuli/P016/things_squid_08s.jpg,0,0,0.0,0,25,25,25,,,,,,,,,,,,,16.013503399997717,0.01350339999771677,None,43.49637609999627,43.49637609999627,43.49637609999627,43.49637609999627,43.49637609999627,43.49637609999627,43.49637609999627,43.49637609999627,43.49637609999627,43.49637609999627,,009,P022,2025_May_13_1809,ConditionRich,2021.2.3,59.91830738196662,
16.75,17.0,41,0.0,Stimuli/Blank.png,0,0,0.0,0,26,26,26,,,,,,,,,,,,,16.764191299997037,0.014191299997037277,None,44.247045099997194,44.247045099997194,44.247045099997194,44.247045099997194,44.247045099997194,44.247045099997194,44.247045099997194,44.247045099997194,44.247045099997194,44.247045099997194,,009,P022,2025_May_13_1809,ConditionRich,2021.2.3,59.91830738196662,
17.0,17.75,35,0.75,Stimuli/P016/things_squid_08s.jpg,0,0,0.0,0,27,27,27,,,,,,,,,,,,,17.01405889999296,0.014058899992960505,None,44.4972506999984,44.4972506999984,44.4972506999984,44.4972506999984,44.4972506999984,44.4972506999984,44.4972506999984,44.4972506999984,44.4972506999984,44.4972506999984,,009,P022,2025_May_13_1809,ConditionRich,2021.2.3,59.91830738196662,
17.75,18.0,41,0.0,Stimuli/Blank.png,0,0,0.0,0,28,28,28,,,,,,,,,,,,,17.764341799993417,0.014341799993417226,None,45.24792090000119,45.24792090000119,45.24792090000119,45.24792090000119,45.24792090000119,45.24792090000119,45.24792090000119,45.24792090000119,45.24792090000119,45.24792090000119,,009,P022,2025_May_13_1809,ConditionRich,2021.2.3,59.91830738196662,
18.0,18.75,35,0.75,Stimuli/P016/things_squid_08s.jpg,0,0,0.0,0,29,29,29,,,,,,,,,,,,,18.014485599996988,0.01448559999698773,None,45.49813549999817,45.49813549999817,45.49813549999817,45.49813549999817,45.49813549999817,45.49813549999817,45.49813549999817,45.49813549999817,45.49813549999817,45.49813549999817,,009,P022,2025_May_13_1809,ConditionRich,2021.2.3,59.91830738196662,
18.75,19.0,41,0.0,Stimuli/Blank.png,0,0,0.0,0,30,30,30,,,,,,,,,,,,,18.765118299997994,0.015118299997993745,None,46.24878899999749,46.24878899999749,46.24878899999749,46.24878899999749,46.24878899999749,46.24878899999749,46.24878899999749,46.24878899999749,46.24878899999749,46.24878899999749,,009,P022,2025_May_13_1809,ConditionRich,2021.2.3,59.91830738196662,
19.0,19.75,35,0.75,Stimuli/P016/things_squid_08s.jpg,1,0,0.75,0,31,31,31,,,,,,,,,,,,,19.015462299998035,0.015462299998034723,None,46.499027199999546,46.499027199999546,46.499027199999546,46.499027199999546,46.499027199999546,46.499027199999546,46.499027199999546,None,46.499027199999546,46.499027199999546,,009,P022,2025_May_13_1809,ConditionRich,2021.2.3,59.91830738196662,
19.75,20.0,41,0.0,Stimuli/Blank.png,0,0,0.0,0,32,32,32,,,,,,,,,,,,,19.74970729999768,-0.0002927000023191795,1,47.23300429999654,47.23300429999654,47.23300429999654,47.23300429999654,47.23300429999654,47.23300429999654,47.23300429999654,47.23300429999654,47.23300429999654,47.23300429999654,0.028233900004124735,009,P022,2025_May_13_1809,ConditionRich,2021.2.3,59.91830738196662,
20.0,20.75,32,0.75,Stimuli/P016/things_pheasant_08s.jpg,0,0,0.0,0,33,33,33,,,,,,,,,,,,,19.999687299998186,-0.000312700001813937,None,47.48319590000028,47.48319590000028,47.48319590000028,47.48319590000028,47.48319590000028,47.48319590000028,47.48319590000028,47.48319590000028,47.48319590000028,47.48319590000028,,009,P022,2025_May_13_1809,ConditionRich,2021.2.3,59.91830738196662,
20.75,21.0,41,0.0,Stimuli/Blank.png,0,0,0.0,0,34,34,34,,,,,,,,,,,,,20.750897799996892,0.0008977999968919903,None,48.233905799999775,48.233905799999775,48.233905799999775,48.233905799999775,48.233905799999775,48.233905799999775,48.233905799999775,48.233905799999775,48.233905799999775,48.233905799999775,,009,P022,2025_May_13_1809,ConditionRich,2021.2.3,59.91830738196662,
21.0,21.75,32,0.75,Stimuli/P016/things_pheasant_08s.jpg,0,0,0.0,0,35,35,35,,,,,,,,,,,,,21.00061569999525,0.0006156999952509068,None,48.48411599999963,48.48411599999963,48.48411599999963,48.48411599999963,48.48411599999963,48.48411599999963,48.48411599999963,48.48411599999963,48.48411599999963,48.48411599999963,,009,P022,2025_May_13_1809,ConditionRich,2021.2.3,59.91830738196662,
21.75,22.0,41,0.0,Stimuli/Blank.png,0,0,0.0,0,36,36,36,,,,,,,,,,,,,21.752611299998534,0.0026112999985343777,None,49.23480949999794,49.23480949999794,49.23480949999794,49.23480949999794,49.23480949999794,49.23480949999794,49.23480949999794,49.23480949999794,49.23480949999794,49.23480949999794,,009,P022,2025_May_13_1809,ConditionRich,2021.2.3,59.91830738196662,
22.0,22.75,32,0.75,Stimuli/P016/things_pheasant_08s.jpg,0,0,0.0,0,37,37,37,,,,,,,,,,,,,22.0021190999978,0.0021190999977989122,None,49.48496149999846,49.48496149999846,49.48496149999846,49.48496149999846,49.48496149999846,49.48496149999846,49.48496149999846,49.48496149999846,49.48496149999846,49.48496149999846,,009,P022,2025_May_13_1809,ConditionRich,2021.2.3,59.91830738196662,
22.75,23.0,41,0.0,Stimuli/Blank.png,0,0,0.0,0,38,38,38,,,,,,,,,,,,,22.754105999993044,0.004105999993043952,None,50.25236629999563,50.25236629999563,50.25236629999563,50.25236629999563,50.25236629999563,50.25236629999563,50.25236629999563,50.25236629999563,50.25236629999563,50.25236629999563,,009,P022,2025_May_13_1809,ConditionRich,2021.2.3,59.91830738196662,
23.0,23.75,32,0.75,Stimuli/P016/things_pheasant_08s.jpg,0,0,0.0,0,39,39,39,,,,,,,,,,,,,23.019006999995327,0.019006999995326623,None,50.502570299999206,50.502570299999206,50.502570299999206,50.502570299999206,50.502570299999206,50.502570299999206,50.502570299999206,50.502570299999206,50.502570299999206,50.502570299999206,,009,P022,2025_May_13_1809,ConditionRich,2021.2.3,59.91830738196662,
23.75,24.0,41,0.0,Stimuli/Blank.png,0,0,0.0,0,40,40,40,,,,,,,,,,,,,23.75321559999429,0.0032155999942915514,None,51.236556399999245,51.236556399999245,51.236556399999245,51.236556399999245,51.236556399999245,51.236556399999245,51.236556399999245,51.236556399999245,51.236556399999245,51.236556399999245,,009,P022,2025_May_13_1809,ConditionRich,2021.2.3,59.91830738196662,
24.0,24.75,39,0.75,Stimuli/P016/things_window_08s.jpg,0,0,0.0,0,41,41,41,,,,,,,,,,,,,24.004185099998722,0.004185099998721853,None,51.50348700000177,51.50348700000177,51.50348700000177,51.50348700000177,51.50348700000177,51.50348700000177,51.50348700000177,51.50348700000177,51.50348700000177,51.50348700000177,,009,P022,2025_May_13_1809,ConditionRich,2021.2.3,59.91830738196662,
24.75,25.0,41,0.0,Stimuli/Blank.png,0,0,0.0,0,42,42,42,,,,,,,,,,,,,24.770566099999996,0.020566099999996368,None,52.254119099998206,52.254119099998206,52.254119099998206,52.254119099998206,52.254119099998206,52.254119099998206,52.254119099998206,52.254119099998206,52.254119099998206,52.254119099998206,,009,P022,2025_May_13_1809,ConditionRich,2021.2.3,59.91830738196662,
25.0,25.75,39,0.75,Stimuli/P016/things_window_08s.jpg,0,0,0.0,0,43,43,43,,,,,,,,,,,,,25.004795099994226,0.004795099994225893,None,52.48765149999963,52.48765149999963,52.48765149999963,52.48765149999963,52.48765149999963,52.48765149999963,52.48765149999963,52.48765149999963,52.48765149999963,52.48765149999963,,009,P022,2025_May_13_1809,ConditionRich,2021.2.3,59.91830738196662,
25.75,26.0,41,0.0,Stimuli/Blank.png,0,0,0.0,0,44,44,44,,,,,,,,,,,,,25.754772799999046,0.004772799999045674,None,53.238317299998016,53.238317299998016,53.238317299998016,53.238317299998016,53.238317299998016,53.238317299998016,53.238317299998016,53.238317299998016,53.238317299998016,53.238317299998016,,009,P022,2025_May_13_1809,ConditionRich,2021.2.3,59.91830738196662,
26.0,26.75,39,0.75,Stimuli/P016/things_window_08s.jpg,0,0,0.0,0,45,45,45,,,,,,,,,,,,,26.005026399994676,0.005026399994676467,None,53.48854169999686,53.48854169999686,53.48854169999686,53.48854169999686,53.48854169999686,53.48854169999686,53.48854169999686,53.48854169999686,53.48854169999686,53.48854169999686,,009,P022,2025_May_13_1809,ConditionRich,2021.2.3,59.91830738196662,
26.75,27.0,41,0.0,Stimuli/Blank.png,0,0,0.0,0,46,46,46,,,,,,,,,,,,,26.75572789999569,0.005727899995690677,None,54.23916579999786,54.23916579999786,54.23916579999786,54.23916579999786,54.23916579999786,54.23916579999786,54.23916579999786,54.23916579999786,54.23916579999786,54.23916579999786,,009,P022,2025_May_13_1809,ConditionRich,2021.2.3,59.91830738196662,
27.0,27.75,39,0.75,Stimuli/P016/things_window_08s.jpg,0,0,0.0,0,47,47,47,,,,,,,,,,,,,27.006142599995655,0.006142599995655473,None,54.50618830000167,54.50618830000167,54.50618830000167,54.50618830000167,54.50618830000167,54.50618830000167,54.50618830000167,54.50618830000167,54.50618830000167,54.50618830000167,,009,P022,2025_May_13_1809,ConditionRich,2021.2.3,59.91830738196662,
27.75,28.0,41,0.0,Stimuli/Blank.png,0,0,0.0,0,48,48,48,,,,,,,,,,,,,27.77440029999707,0.02440029999706894,None,55.25677420000284,55.25677420000284,55.25677420000284,55.25677420000284,55.25677420000284,55.25677420000284,55.25677420000284,55.25677420000284,55.25677420000284,55.25677420000284,,009,P022,2025_May_13_1809,ConditionRich,2021.2.3,59.91830738196662,
28.0,28.75,19,0.75,Stimuli/P016/sun_bzhwvgrzvttqoexa.jpg,0,0,0.0,0,49,49,49,,,,,,,,,,,,,28.007754399994155,0.007754399994155392,None,55.49031280000054,55.49031280000054,55.49031280000054,55.49031280000054,55.49031280000054,55.49031280000054,55.49031280000054,55.49031280000054,55.49031280000054,55.49031280000054,,009,P022,2025_May_13_1809,ConditionRich,2021.2.3,59.91830738196662,
28.75,29.0,41,0.0,Stimuli/Blank.png,0,0,0.0,0,50,50,50,,,,,,,,,,,,,28.758290599995235,0.008290599995234516,None,56.240983299998334,56.240983299998334,56.240983299998334,56.240983299998334,56.240983299998334,56.240983299998334,56.240983299998334,56.240983299998334,56.240983299998334,56.240983299998334,,009,P022,2025_May_13_1809,ConditionRich,2021.2.3,59.91830738196662,
29.0,29.75,19,0.75,Stimuli/P016/sun_bzhwvgrzvttqoexa.jpg,0,0,0.0,0,51,51,51,,,,,,,,,,,,,29.008375499994145,0.008375499994144775,None,56.50788389999798,56.50788389999798,56.50788389999798,56.50788389999798,56.50788389999798,56.50788389999798,56.50788389999798,56.50788389999798,56.50788389999798,56.50788389999798,,009,P022,2025_May_13_1809,ConditionRich,2021.2.3,59.91830738196662,
29.75,30.0,41,0.0,Stimuli/Blank.png,0,0,0.0,0,52,52,52,,,,,,,,,,,,,29.77484359999653,0.02484359999652952,None,57.25853310000093,57.25853310000093,57.25853310000093,57.25853310000093,57.25853310000093,57.25853310000093,57.25853310000093,57.25853310000093,57.25853310000093,57.25853310000093,,009,P022,2025_May_13_1809,ConditionRich,2021.2.3,59.91830738196662,
30.0,30.75,19,0.75,Stimuli/P016/sun_bzhwvgrzvttqoexa.jpg,0,0,0.0,0,53,53,53,,,,,,,,,,,,,30.00891319999937,0.008913199999369681,None,57.49207580000075,57.49207580000075,57.49207580000075,57.49207580000075,57.49207580000075,57.49207580000075,57.49207580000075,57.49207580000075,57.49207580000075,57.49207580000075,,009,P022,2025_May_13_1809,ConditionRich,2021.2.3,59.91830738196662,
30.75,31.0,41,0.0,Stimuli/Blank.png,0,0,0.0,0,54,54,54,,,,,,,,,,,,,30.75912079999398,0.009120799993979745,None,58.242739399996935,58.242739399996935,58.242739399996935,58.242739399996935,58.242739399996935,58.242739399996935,58.242739399996935,58.242739399996935,58.242739399996935,58.242739399996935,,009,P022,2025_May_13_1809,ConditionRich,2021.2.3,59.91830738196662,
31.0,31.75,19,0.75,Stimuli/P016/sun_bzhwvgrzvttqoexa.jpg,0,0,0.0,0,55,55,55,,,,,,,,,,,,,31.0103800999932,0.01038009999319911,None,58.49296679999679,58.49296679999679,58.49296679999679,58.49296679999679,58.49296679999679,58.49296679999679,58.49296679999679,58.49296679999679,58.49296679999679,58.49296679999679,,009,P022,2025_May_13_1809,ConditionRich,2021.2.3,59.91830738196662,
31.75,32.0,41,0.0,Stimuli/Blank.png,0,0,0.0,0,56,56,56,,,,,,,,,,,,,31.760068099996715,0.010068099996715318,None,59.2436286000011,59.2436286000011,59.2436286000011,59.2436286000011,59.2436286000011,59.2436286000011,59.2436286000011,59.2436286000011,59.2436286000011,59.2436286000011,,009,P022,2025_May_13_1809,ConditionRich,2021.2.3,59.91830738196662,
32.0,32.75,6,0.75,Stimuli/P016/sun_akecfasimgpbqcnt.jpg,0,0,0.0,0,57,57,57,,,,,,,,,,,,,32.01105709999683,0.01105709999683313,None,59.51053069999762,59.51053069999762,59.51053069999762,59.51053069999762,59.51053069999762,59.51053069999762,59.51053069999762,59.51053069999762,59.51053069999762,59.51053069999762,,009,P022,2025_May_13_1809,ConditionRich,2021.2.3,59.91830738196662,
32.75,33.0,41,0.0,Stimuli/Blank.png,0,0,0.0,0,58,58,58,,,,,,,,,,,,,32.77920969999832,0.029209699998318683,None,60.26119839999592,60.26119839999592,60.26119839999592,60.26119839999592,60.26119839999592,60.26119839999592,60.26119839999592,60.26119839999592,60.26119839999592,60.26119839999592,,009,P022,2025_May_13_1809,ConditionRich,2021.2.3,59.91830738196662,
33.0,33.75,6,0.75,Stimuli/P016/sun_akecfasimgpbqcnt.jpg,0,0,0.0,0,59,59,59,,,,,,,,,,,,,33.014110999996774,0.014110999996773899,None,60.51142190000246,60.51142190000246,60.51142190000246,60.51142190000246,60.51142190000246,60.51142190000246,60.51142190000246,60.51142190000246,60.51142190000246,60.51142190000246,,009,P022,2025_May_13_1809,ConditionRich,2021.2.3,59.91830738196662,
33.75,34.0,41,0.0,Stimuli/Blank.png,0,0,0.0,0,60,60,60,,,,,,,,,,,,,33.77925819999655,0.029258199996547773,None,61.262081599998055,61.262081599998055,61.262081599998055,61.262081599998055,61.262081599998055,61.262081599998055,61.262081599998055,61.262081599998055,61.262081599998055,61.262081599998055,,009,P022,2025_May_13_1809,ConditionRich,2021.2.3,59.91830738196662,
34.0,34.75,6,0.75,Stimuli/P016/sun_akecfasimgpbqcnt.jpg,0,0,0.0,0,61,61,61,,,,,,,,,,,,,34.01249979999557,0.012499799995566718,None,61.49561659999745,61.49561659999745,61.49561659999745,61.49561659999745,61.49561659999745,61.49561659999745,61.49561659999745,61.49561659999745,61.49561659999745,61.49561659999745,,009,P022,2025_May_13_1809,ConditionRich,2021.2.3,59.91830738196662,
34.75,35.0,41,0.0,Stimuli/Blank.png,0,0,0.0,0,62,62,62,,,,,,,,,,,,,34.76346529999864,0.013465299998642877,None,62.246290600000066,62.246290600000066,62.246290600000066,62.246290600000066,62.246290600000066,62.246290600000066,62.246290600000066,62.246290600000066,62.246290600000066,62.246290600000066,,009,P022,2025_May_13_1809,ConditionRich,2021.2.3,59.91830738196662,
35.0,35.75,6,0.75,Stimuli/P016/sun_akecfasimgpbqcnt.jpg,0,0,0.0,0,63,63,63,,,,,,,,,,,,,35.01304089999758,0.013040899997577071,None,62.49651839999569,62.49651839999569,62.49651839999569,62.49651839999569,62.49651839999569,62.49651839999569,62.49651839999569,62.49651839999569,62.49651839999569,62.49651839999569,,009,P022,2025_May_13_1809,ConditionRich,2021.2.3,59.91830738196662,
35.75,36.0,41,0.0,Stimuli/Blank.png,0,0,0.0,0,64,64,64,,,,,,,,,,,,,35.76419499999611,0.014194999996107072,None,63.24719460000051,63.24719460000051,63.24719460000051,63.24719460000051,63.24719460000051,63.24719460000051,63.24719460000051,63.24719460000051,63.24719460000051,63.24719460000051,,009,P022,2025_May_13_1809,ConditionRich,2021.2.3,59.91830738196662,
36.0,36.75,24,0.75,Stimuli/P016/things_bunkbed_08s.jpg,0,0,0.0,0,65,65,65,,,,,,,,,,,,,36.01372949999495,0.013729499994951766,None,63.49738480000087,63.49738480000087,63.49738480000087,63.49738480000087,63.49738480000087,63.49738480000087,63.49738480000087,63.49738480000087,63.49738480000087,63.49738480000087,,009,P022,2025_May_13_1809,ConditionRich,2021.2.3,59.91830738196662,
36.75,37.0,41,0.0,Stimuli/Blank.png,0,0,0.0,0,66,66,66,,,,,,,,,,,,,36.76437449999503,0.0143744999950286,None,64.24804849999782,64.24804849999782,64.24804849999782,64.24804849999782,64.24804849999782,64.24804849999782,64.24804849999782,64.24804849999782,64.24804849999782,64.24804849999782,,009,P022,2025_May_13_1809,ConditionRich,2021.2.3,59.91830738196662,
37.0,37.75,24,0.75,Stimuli/P016/things_bunkbed_08s.jpg,0,0,0.0,0,67,67,67,,,,,,,,,,,,,37.014728599999216,0.014728599999216385,None,64.49829170000157,64.49829170000157,64.49829170000157,64.49829170000157,64.49829170000157,64.49829170000157,64.49829170000157,64.49829170000157,64.49829170000157,64.49829170000157,,009,P022,2025_May_13_1809,ConditionRich,2021.2.3,59.91830738196662,
37.75,38.0,41,0.0,Stimuli/Blank.png,0,0,0.0,0,68,68,68,,,,,,,,,,,,,37.76604159999988,0.016041599999880418,None,65.24890929999674,65.24890929999674,65.24890929999674,65.24890929999674,65.24890929999674,65.24890929999674,65.24890929999674,65.24890929999674,65.24890929999674,65.24890929999674,,009,P022,2025_May_13_1809,ConditionRich,2021.2.3,59.91830738196662,
38.0,38.75,24,0.75,Stimuli/P016/things_bunkbed_08s.jpg,0,0,0.0,0,69,69,69,,,,,,,,,,,,,37.99962449999293,-0.0003755000070668757,None,65.48245199999656,65.48245199999656,65.48245199999656,65.48245199999656,65.48245199999656,65.48245199999656,65.48245199999656,65.48245199999656,65.48245199999656,65.48245199999656,,009,P022,2025_May_13_1809,ConditionRich,2021.2.3,59.91830738196662,
38.75,39.0,41,0.0,Stimuli/Blank.png,0,0,0.0,0,70,70,70,,,,,,,,,,,,,38.749696799997764,-0.0003032000022358261,None,66.23313790000248,66.23313790000248,66.23313790000248,66.23313790000248,66.23313790000248,66.23313790000248,66.23313790000248,66.23313790000248,66.23313790000248,66.23313790000248,,009,P022,2025_May_13_1809,ConditionRich,2021.2.3,59.91830738196662,
39.0,39.75,24,0.75,Stimuli/P016/things_bunkbed_08s.jpg,0,0,0.0,0,71,71,71,,,,,,,,,,,,,38.999781799997436,-0.0002182000025641173,None,66.48336059999565,66.48336059999565,66.48336059999565,66.48336059999565,66.48336059999565,66.48336059999565,66.48336059999565,66.48336059999565,66.48336059999565,66.48336059999565,,009,P022,2025_May_13_1809,ConditionRich,2021.2.3,59.91830738196662,
39.75,40.0,41,0.0,Stimuli/Blank.png,0,0,0.0,0,72,72,72,,,,,,,,,,,,,39.75111609999294,0.0011160999929415993,None,67.23402460000216,67.23402460000216,67.23402460000216,67.23402460000216,67.23402460000216,67.23402460000216,67.23402460000216,67.23402460000216,67.23402460000216,67.23402460000216,,009,P022,2025_May_13_1809,ConditionRich,2021.2.3,59.91830738196662,
40.0,40.75,20,0.75,Stimuli/P016/sun_bzmxulijbnmshodq.jpg,0,0,0.0,0,73,73,73,,,,,,,,,,,,,40.000537499996426,0.0005374999964260496,None,67.48424820000218,67.48424820000218,67.48424820000218,67.48424820000218,67.48424820000218,67.48424820000218,67.48424820000218,67.48424820000218,67.48424820000218,67.48424820000218,,009,P022,2025_May_13_1809,ConditionRich,2021.2.3,59.91830738196662,
40.75,41.0,41,0.0,Stimuli/Blank.png,0,0,0.0,0,74,74,74,,,,,,,,,,,,,40.75282939999306,0.002829399993061088,None,68.23492070000066,68.23492070000066,68.23492070000066,68.23492070000066,68.23492070000066,68.23492070000066,68.23492070000066,68.23492070000066,68.23492070000066,68.23492070000066,,009,P022,2025_May_13_1809,ConditionRich,2021.2.3,59.91830738196662,
41.0,41.75,20,0.75,Stimuli/P016/sun_bzmxulijbnmshodq.jpg,0,0,0.0,0,75,75,75,,,,,,,,,,,,,41.00232409999444,0.002324099994439166,None,68.48512930000288,68.48512930000288,68.48512930000288,68.48512930000288,68.48512930000288,68.48512930000288,68.48512930000288,68.48512930000288,68.48512930000288,68.48512930000288,,009,P022,2025_May_13_1809,ConditionRich,2021.2.3,59.91830738196662,
41.75,42.0,41,0.0,Stimuli/Blank.png,0,0,0.0,0,76,76,76,,,,,,,,,,,,,41.75291739999375,0.002917399993748404,None,69.23580029999721,69.23580029999721,69.23580029999721,69.23580029999721,69.23580029999721,69.23580029999721,69.23580029999721,69.23580029999721,69.23580029999721,69.23580029999721,,009,P022,2025_May_13_1809,ConditionRich,2021.2.3,59.91830738196662,
42.0,42.75,20,0.75,Stimuli/P016/sun_bzmxulijbnmshodq.jpg,0,0,0.0,0,77,77,77,,,,,,,,,,,,,42.00262899999507,0.0026289999950677156,None,69.48601709999639,69.48601709999639,69.48601709999639,69.48601709999639,69.48601709999639,69.48601709999639,69.48601709999639,69.48601709999639,69.48601709999639,69.48601709999639,,009,P022,2025_May_13_1809,ConditionRich,2021.2.3,59.91830738196662,
42.75,43.0,41,0.0,Stimuli/Blank.png,0,0,0.0,0,78,78,78,,,,,,,,,,,,,42.753882999997586,0.003882999997586012,None,70.23668329999782,70.23668329999782,70.23668329999782,70.23668329999782,70.23668329999782,70.23668329999782,70.23668329999782,70.23668329999782,70.23668329999782,70.23668329999782,,009,P022,2025_May_13_1809,ConditionRich,2021.2.3,59.91830738196662,
43.0,43.75,20,0.75,Stimuli/P016/sun_bzmxulijbnmshodq.jpg,0,0,0.0,0,79,79,79,,,,,,,,,,,,,43.00450649999402,0.004506499994022306,None,70.50358579999738,70.50358579999738,70.50358579999738,70.50358579999738,70.50358579999738,70.50358579999738,70.50358579999738,70.50358579999738,70.50358579999738,70.50358579999738,,009,P022,2025_May_13_1809,ConditionRich,2021.2.3,59.91830738196662,
43.75,44.0,41,0.0,Stimuli/Blank.png,0,0,0.0,0,80,80,80,,,,,,,,,,,,,43.77148849999503,0.021488499995029997,None,71.25426059999882,71.25426059999882,71.25426059999882,71.25426059999882,71.25426059999882,71.25426059999882,71.25426059999882,71.25426059999882,71.25426059999882,71.25426059999882,,009,P022,2025_May_13_1809,ConditionRich,2021.2.3,59.91830738196662,
44.0,44.75,33,0.75,Stimuli/P016/things_raccoon_08n.jpg,0,0,0.0,0,81,81,81,,,,,,,,,,,,,44.00426599999628,0.004265999996277969,None,71.48774669999693,71.48774669999693,71.48774669999693,71.48774669999693,71.48774669999693,71.48774669999693,71.48774669999693,71.48774669999693,71.48774669999693,71.48774669999693,,009,P022,2025_May_13_1809,ConditionRich,2021.2.3,59.91830738196662,
44.75,45.0,41,0.0,Stimuli/Blank.png,0,0,0.0,0,82,82,82,,,,,,,,,,,,,44.7555499999944,0.005549999994400423,None,72.23846229999617,72.23846229999617,72.23846229999617,72.23846229999617,72.23846229999617,72.23846229999617,72.23846229999617,72.23846229999617,72.23846229999617,72.23846229999617,,009,P022,2025_May_13_1809,ConditionRich,2021.2.3,59.91830738196662,
45.0,45.75,33,0.75,Stimuli/P016/things_raccoon_08n.jpg,1,0,0.75,0,83,83,83,,,,,,,,,,,,,45.004920599996694,0.004920599996694364,1,72.48867009999958,72.48867009999958,72.48867009999958,72.48867009999958,72.48867009999958,72.48867009999958,72.48867009999958,73.22269389999565,72.48867009999958,72.48867009999958,0.4276413000043249,009,P022,2025_May_13_1809,ConditionRich,2021.2.3,59.91830738196662,
45.75,46.0,41,0.0,Stimuli/Blank.png,0,0,0.0,0,84,84,84,,,,,,,,,,,,,45.75876069999504,0.008760699995036703,None,73.25602929999877,73.25602929999877,73.25602929999877,73.25602929999877,73.25602929999877,73.25602929999877,73.25602929999877,73.25602929999877,73.25602929999877,73.25602929999877,,009,P022,2025_May_13_1809,ConditionRich,2021.2.3,59.91830738196662,
46.0,46.75,33,0.75,Stimuli/P016/things_raccoon_08n.jpg,0,0,0.0,0,85,85,85,,,,,,,,,,,,,46.02273539999442,0.022735399994417094,None,73.50623259999702,73.50623259999702,73.50623259999702,73.50623259999702,73.50623259999702,73.50623259999702,73.50623259999702,73.50623259999702,73.50623259999702,73.50623259999702,,009,P022,2025_May_13_1809,ConditionRich,2021.2.3,59.91830738196662,
46.75,47.0,41,0.0,Stimuli/Blank.png,0,0,0.0,0,86,86,86,,,,,,,,,,,,,46.75889549999556,0.008895499995560385,None,74.256905000002,74.256905000002,74.256905000002,74.256905000002,74.256905000002,74.256905000002,74.256905000002,74.256905000002,74.256905000002,74.256905000002,,009,P022,2025_May_13_1809,ConditionRich,2021.2.3,59.91830738196662,
47.0,47.75,33,0.75,Stimuli/P016/things_raccoon_08n.jpg,0,0,0.0,0,87,87,87,,,,,,,,,,,,,47.024138299995684,0.024138299995684065,None,74.50711800000136,74.50711800000136,74.50711800000136,74.50711800000136,74.50711800000136,74.50711800000136,74.50711800000136,74.50711800000136,74.50711800000136,74.50711800000136,,009,P022,2025_May_13_1809,ConditionRich,2021.2.3,59.91830738196662,
47.75,48.0,41,0.0,Stimuli/Blank.png,0,0,0.0,0,88,88,88,,,,,,,,,,,,,47.75837099999626,0.008370999996259343,None,75.24110980000114,75.24110980000114,75.24110980000114,75.24110980000114,75.24110980000114,75.24110980000114,75.24110980000114,75.24110980000114,75.24110980000114,75.24110980000114,,009,P022,2025_May_13_1809,ConditionRich,2021.2.3,59.91830738196662,
48.0,48.75,12,0.75,Stimuli/P016/sun_boffixsnbbloarty.jpg,0,0,0.0,0,89,89,89,,,,,,,,,,,,,48.007597899995744,0.007597899995744228,None,75.49132709999685,75.49132709999685,75.49132709999685,75.49132709999685,75.49132709999685,75.49132709999685,75.49132709999685,75.49132709999685,75.49132709999685,75.49132709999685,,009,P022,2025_May_13_1809,ConditionRich,2021.2.3,59.91830738196662,
48.75,49.0,41,0.0,Stimuli/Blank.png,0,0,0.0,0,90,90,90,,,,,,,,,,,,,48.759289799992985,0.009289799992984626,None,76.24202350000269,76.24202350000269,76.24202350000269,76.24202350000269,76.24202350000269,76.24202350000269,76.24202350000269,76.24202350000269,76.24202350000269,76.24202350000269,,009,P022,2025_May_13_1809,ConditionRich,2021.2.3,59.91830738196662,
49.0,49.75,12,0.75,Stimuli/P016/sun_boffixsnbbloarty.jpg,0,0,0.0,0,91,91,91,,,,,,,,,,,,,49.008815799999866,0.008815799999865703,None,76.49221469999611,76.49221469999611,76.49221469999611,76.49221469999611,76.49221469999611,76.49221469999611,76.49221469999611,76.49221469999611,76.49221469999611,76.49221469999611,,009,P022,2025_May_13_1809,ConditionRich,2021.2.3,59.91830738196662,
49.75,50.0,41,0.0,Stimuli/Blank.png,0,0,0.0,0,92,92,92,,,,,,,,,,,,,49.759307999993325,0.009307999993325211,None,77.24288459999661,77.24288459999661,77.24288459999661,77.24288459999661,77.24288459999661,77.24288459999661,77.24288459999661,77.24288459999661,77.24288459999661,77.24288459999661,,009,P022,2025_May_13_1809,ConditionRich,2021.2.3,59.91830738196662,
50.0,50.75,12,0.75,Stimuli/P016/sun_boffixsnbbloarty.jpg,0,0,0.0,0,93,93,93,,,,,,,,,,,,,50.00978209999448,0.009782099994481541,None,77.49309519999952,77.49309519999952,77.49309519999952,77.49309519999952,77.49309519999952,77.49309519999952,77.49309519999952,77.49309519999952,77.49309519999952,77.49309519999952,,009,P022,2025_May_13_1809,ConditionRich,2021.2.3,59.91830738196662,
50.75,51.0,41,0.0,Stimuli/Blank.png,0,0,0.0,0,94,94,94,,,,,,,,,,,,,50.761029499997676,0.011029499997675885,None,78.24376630000188,78.24376630000188,78.24376630000188,78.24376630000188,78.24376630000188,78.24376630000188,78.24376630000188,78.24376630000188,78.24376630000188,78.24376630000188,,009,P022,2025_May_13_1809,ConditionRich,2021.2.3,59.91830738196662,
51.0,51.75,12,0.75,Stimuli/P016/sun_boffixsnbbloarty.jpg,0,0,0.0,0,95,95,95,,,,,,,,,,,,,51.01033699999971,0.010336999999708496,None,78.49398320000182,78.49398320000182,78.49398320000182,78.49398320000182,78.49398320000182,78.49398320000182,78.49398320000182,78.49398320000182,78.49398320000182,78.49398320000182,,009,P022,2025_May_13_1809,ConditionRich,2021.2.3,59.91830738196662,
51.75,52.0,41,0.0,Stimuli/Blank.png,0,0,0.0,0,96,96,96,,,,,,,,,,,,,51.763759099994786,0.013759099994786084,None,79.26132939999661,79.26132939999661,79.26132939999661,79.26132939999661,79.26132939999661,79.26132939999661,79.26132939999661,79.26132939999661,79.26132939999661,79.26132939999661,,009,P022,2025_May_13_1809,ConditionRich,2021.2.3,59.91830738196662,
52.0,52.75,21,0.75,Stimuli/P016/things_arch_08s.jpg,0,0,0.0,0,97,97,97,,,,,,,,,,,,,52.028050599998096,0.028050599998096004,None,79.51162679999834,79.51162679999834,79.51162679999834,79.51162679999834,79.51162679999834,79.51162679999834,79.51162679999834,79.51162679999834,79.51162679999834,79.51162679999834,,009,P022,2025_May_13_1809,ConditionRich,2021.2.3,59.91830738196662,
52.75,53.0,41,0.0,Stimuli/Blank.png,0,0,0.0,0,98,98,98,,,,,,,,,,,,,52.76492479999433,0.014924799994332716,None,80.26221539999824,80.26221539999824,80.26221539999824,80.26221539999824,80.26221539999824,80.26221539999824,80.26221539999824,80.26221539999824,80.26221539999824,80.26221539999824,,009,P022,2025_May_13_1809,ConditionRich,2021.2.3,59.91830738196662,
53.0,53.75,21,0.75,Stimuli/P016/things_arch_08s.jpg,0,0,0.0,0,99,99,99,,,,,,,,,,,,,53.029435799995554,0.02943579999555368,None,80.5124336000008,80.5124336000008,80.5124336000008,80.5124336000008,80.5124336000008,80.5124336000008,80.5124336000008,80.5124336000008,80.5124336000008,80.5124336000008,,009,P022,2025_May_13_1809,ConditionRich,2021.2.3,59.91830738196662,
53.75,54.0,41,0.0,Stimuli/Blank.png,0,0,0.0,0,100,100,100,,,,,,,,,,,,,53.76301109999622,0.013011099996219855,None,81.24639259999822,81.24639259999822,81.24639259999822,81.24639259999822,81.24639259999822,81.24639259999822,81.24639259999822,81.24639259999822,81.24639259999822,81.24639259999822,,009,P022,2025_May_13_1809,ConditionRich,2021.2.3,59.91830738196662,
54.0,54.75,21,0.75,Stimuli/P016/things_arch_08s.jpg,0,0,0.0,0,101,101,101,,,,,,,,,,,,,54.01324369999929,0.013243699999293312,None,81.49664610000036,81.49664610000036,81.49664610000036,81.49664610000036,81.49664610000036,81.49664610000036,81.49664610000036,81.49664610000036,81.49664610000036,81.49664610000036,,009,P022,2025_May_13_1809,ConditionRich,2021.2.3,59.91830738196662,
54.75,55.0,41,0.0,Stimuli/Blank.png,0,0,0.0,0,102,102,102,,,,,,,,,,,,,54.76366649999545,0.013666499995451886,None,82.2472901000001,82.2472901000001,82.2472901000001,82.2472901000001,82.2472901000001,82.2472901000001,82.2472901000001,82.2472901000001,82.2472901000001,82.2472901000001,,009,P022,2025_May_13_1809,ConditionRich,2021.2.3,59.91830738196662,
55.0,55.75,21,0.75,Stimuli/P016/things_arch_08s.jpg,1,0,0.75,0,103,103,103,,,,,,,,,,,,,55.0146398999932,0.014639899993198924,1,82.49751719999767,82.49751719999767,82.49751719999767,82.49751719999767,82.49751719999767,82.49751719999767,82.49751719999767,83.23150989999704,82.49751719999767,82.49751719999767,0.4397529999987455,009,P022,2025_May_13_1809,ConditionRich,2021.2.3,59.91830738196662,
55.75,56.0,41,0.0,Stimuli/Blank.png,0,0,0.0,0,104,104,104,,,,,,,,,,,,,55.7647083999982,0.014708399998198729,None,83.24818679999589,83.24818679999589,83.24818679999589,83.24818679999589,83.24818679999589,83.24818679999589,83.24818679999589,83.24818679999589,83.24818679999589,83.24818679999589,,009,P022,2025_May_13_1809,ConditionRich,2021.2.3,59.91830738196662,
56.0,56.75,28,0.75,Stimuli/P016/things_latte_08s.jpg,0,0,0.0,0,105,105,105,,,,,,,,,,,,,56.01556879999407,0.015568799994071014,None,83.4984489999988,83.4984489999988,83.4984489999988,83.4984489999988,83.4984489999988,83.4984489999988,83.4984489999988,83.4984489999988,83.4984489999988,83.4984489999988,,009,P022,2025_May_13_1809,ConditionRich,2021.2.3,59.91830738196662,
56.75,57.0,41,0.0,Stimuli/Blank.png,0,0,0.0,0,106,106,106,,,,,,,,,,,,,56.74958599999809,-0.00041400000191060826,None,84.23239150000154,84.23239150000154,84.23239150000154,84.23239150000154,84.23239150000154,84.23239150000154,84.23239150000154,84.23239150000154,84.23239150000154,84.23239150000154,,009,P022,2025_May_13_1809,ConditionRich,2021.2.3,59.91830738196662,
57.0,57.75,28,0.75,Stimuli/P016/things_latte_08s.jpg,0,0,0.0,0,107,107,107,,,,,,,,,,,,,56.99902139999904,-0.000978600000962615,None,84.48260099999607,84.48260099999607,84.48260099999607,84.48260099999607,84.48260099999607,84.48260099999607,84.48260099999607,84.48260099999607,84.48260099999607,84.48260099999607,,009,P022,2025_May_13_1809,ConditionRich,2021.2.3,59.91830738196662,
57.75,58.0,41,0.0,Stimuli/Blank.png,0,0,0.0,0,108,108,108,,,,,,,,,,,,,57.750160499999765,0.0001604999997653067,None,85.23327440000139,85.23327440000139,85.23327440000139,85.23327440000139,85.23327440000139,85.23327440000139,85.23327440000139,85.23327440000139,85.23327440000139,85.23327440000139,,009,P022,2025_May_13_1809,ConditionRich,2021.2.3,59.91830738196662,
58.0,58.75,28,0.75,Stimuli/P016/things_latte_08s.jpg,1,0,0.75,0,109,109,109,,,,,,,,,,,,,58.00084119999519,0.0008411999951931648,1,85.50014370000281,85.50014370000281,85.50014370000281,85.50014370000281,85.50014370000281,85.50014370000281,85.50014370000281,86.21747709999909,85.50014370000281,85.50014370000281,0.45115910000458825,009,P022,2025_May_13_1809,ConditionRich,2021.2.3,59.91830738196662,
58.75,59.0,41,0.0,Stimuli/Blank.png,0,0,0.0,0,110,110,110,,,,,,,,,,,,,58.767913599993335,0.017913599993335083,None,86.25084829999832,86.25084829999832,86.25084829999832,86.25084829999832,86.25084829999832,86.25084829999832,86.25084829999832,86.25084829999832,86.25084829999832,86.25084829999832,,009,P022,2025_May_13_1809,ConditionRich,2021.2.3,59.91830738196662,
59.0,59.75,28,0.75,Stimuli/P016/things_latte_08s.jpg,0,0,0.0,0,111,111,111,,,,,,,,,,,,,59.000951799993345,0.0009517999933450483,None,86.5010781000019,86.5010781000019,86.5010781000019,86.5010781000019,86.5010781000019,86.5010781000019,86.5010781000019,86.5010781000019,86.5010781000019,86.5010781000019,,009,P022,2025_May_13_1809,ConditionRich,2021.2.3,59.91830738196662,
59.75,60.0,41,0.0,Stimuli/Blank.png,0,0,0.0,0,112,112,112,,,,,,,,,,,,,59.76900929999829,0.019009299998288043,None,87.2517250000019,87.2517250000019,87.2517250000019,87.2517250000019,87.2517250000019,87.2517250000019,87.2517250000019,87.2517250000019,87.2517250000019,87.2517250000019,,009,P022,2025_May_13_1809,ConditionRich,2021.2.3,59.91830738196662,
60.0,60.75,30,0.75,Stimuli/P016/things_ottoman_08s.jpg,0,0,0.0,0,113,113,113,,,,,,,,,,,,,60.00385809999716,0.003858099997160025,None,87.50195859999803,87.50195859999803,87.50195859999803,87.50195859999803,87.50195859999803,87.50195859999803,87.50195859999803,87.50195859999803,87.50195859999803,87.50195859999803,,009,P022,2025_May_13_1809,ConditionRich,2021.2.3,59.91830738196662,
60.75,61.0,41,0.0,Stimuli/Blank.png,0,0,0.0,0,114,114,114,,,,,,,,,,,,,60.769147399994836,0.019147399994835723,None,88.25261070000124,88.25261070000124,88.25261070000124,88.25261070000124,88.25261070000124,88.25261070000124,88.25261070000124,88.25261070000124,88.25261070000124,88.25261070000124,,009,P022,2025_May_13_1809,ConditionRich,2021.2.3,59.91830738196662,
61.0,61.75,30,0.75,Stimuli/P016/things_ottoman_08s.jpg,0,0,0.0,0,115,115,115,,,,,,,,,,,,,61.00264349999634,0.0026434999963385053,None,88.48615240000072,88.48615240000072,88.48615240000072,88.48615240000072,88.48615240000072,88.48615240000072,88.48615240000072,88.48615240000072,88.48615240000072,88.48615240000072,,009,P022,2025_May_13_1809,ConditionRich,2021.2.3,59.91830738196662,
61.75,62.0,41,0.0,Stimuli/Blank.png,0,0,0.0,0,116,116,116,,,,,,,,,,,,,61.753039099996386,0.0030390999963856302,None,89.23682019999978,89.23682019999978,89.23682019999978,89.23682019999978,89.23682019999978,89.23682019999978,89.23682019999978,89.23682019999978,89.23682019999978,89.23682019999978,,009,P022,2025_May_13_1809,ConditionRich,2021.2.3,59.91830738196662,
62.0,62.75,30,0.75,Stimuli/P016/things_ottoman_08s.jpg,0,0,0.0,0,117,117,117,,,,,,,,,,,,,62.00401819999388,0.004018199993879534,None,89.48701240000082,89.48701240000082,89.48701240000082,89.48701240000082,89.48701240000082,89.48701240000082,89.48701240000082,89.48701240000082,89.48701240000082,89.48701240000082,,009,P022,2025_May_13_1809,ConditionRich,2021.2.3,59.91830738196662,
62.75,63.0,41,0.0,Stimuli/Blank.png,0,0,0.0,0,118,118,118,,,,,,,,,,,,,62.7547146999932,0.004714699993201066,None,90.23771780000243,90.23771780000243,90.23771780000243,90.23771780000243,90.23771780000243,90.23771780000243,90.23771780000243,90.23771780000243,90.23771780000243,90.23771780000243,,009,P022,2025_May_13_1809,ConditionRich,2021.2.3,59.91830738196662,
63.0,63.75,30,0.75,Stimuli/P016/things_ottoman_08s.jpg,0,0,0.0,0,119,119,119,,,,,,,,,,,,,63.00478109999676,0.00478109999676235,None,90.48794679999992,90.48794679999992,90.48794679999992,90.48794679999992,90.48794679999992,90.48794679999992,90.48794679999992,90.48794679999992,90.48794679999992,90.48794679999992,,009,P022,2025_May_13_1809,ConditionRich,2021.2.3,59.91830738196662,
63.75,64.0,41,0.0,Stimuli/Blank.png,0,0,0.0,0,120,120,120,,,,,,,,,,,,,63.75492709999526,0.004927099995256867,None,91.23858179999661,91.23858179999661,91.23858179999661,91.23858179999661,91.23858179999661,91.23858179999661,91.23858179999661,91.23858179999661,91.23858179999661,91.23858179999661,,009,P022,2025_May_13_1809,ConditionRich,2021.2.3,59.91830738196662,
64.0,64.75,1,0.75,Stimuli/P016/sun_aacpzgqrortyhyss.jpg,0,0,0.0,0,121,121,121,,,,,,,,,,,,,64.00609549999353,0.006095499993534759,None,91.50549579999642,91.50549579999642,91.50549579999642,91.50549579999642,91.50549579999642,91.50549579999642,91.50549579999642,91.50549579999642,91.50549579999642,91.50549579999642,,009,P022,2025_May_13_1809,ConditionRich,2021.2.3,59.91830738196662,
64.75,65.0,41,0.0,Stimuli/Blank.png,0,0,0.0,0,122,122,122,,,,,,,,,,,,,64.77321889999439,0.023218899994390085,None,92.25615470000048,92.25615470000048,92.25615470000048,92.25615470000048,92.25615470000048,92.25615470000048,92.25615470000048,92.25615470000048,92.25615470000048,92.25615470000048,,009,P022,2025_May_13_1809,ConditionRich,2021.2.3,59.91830738196662,
65.0,65.75,1,0.75,Stimuli/P016/sun_aacpzgqrortyhyss.jpg,0,0,0.0,0,123,123,123,,,,,,,,,,,,,65.0090848999971,0.009084899997105822,None,92.50639059999958,92.50639059999958,92.50639059999958,92.50639059999958,92.50639059999958,92.50639059999958,92.50639059999958,92.50639059999958,92.50639059999958,92.50639059999958,,009,P022,2025_May_13_1809,ConditionRich,2021.2.3,59.91830738196662,
65.75,66.0,41,0.0,Stimuli/Blank.png,0,0,0.0,0,124,124,124,,,,,,,,,,,,,65.77418689999467,0.024186899994674604,None,93.25704080000287,93.25704080000287,93.25704080000287,93.25704080000287,93.25704080000287,93.25704080000287,93.25704080000287,93.25704080000287,93.25704080000287,93.25704080000287,,009,P022,2025_May_13_1809,ConditionRich,2021.2.3,59.91830738196662,
66.0,66.75,1,0.75,Stimuli/P016/sun_aacpzgqrortyhyss.jpg,0,0,0.0,0,125,125,125,,,,,,,,,,,,,66.00905209999473,0.009052099994732998,None,93.50726919999579,93.50726919999579,93.50726919999579,93.50726919999579,93.50726919999579,93.50726919999579,93.50726919999579,93.50726919999579,93.50726919999579,93.50726919999579,,009,P022,2025_May_13_1809,ConditionRich,2021.2.3,59.91830738196662,
66.75,67.0,41,0.0,Stimuli/Blank.png,0,0,0.0,0,126,126,126,,,,,,,,,,,,,66.77497959999891,0.024979599998914637,None,94.25792170000204,94.25792170000204,94.25792170000204,94.25792170000204,94.25792170000204,94.25792170000204,94.25792170000204,94.25792170000204,94.25792170000204,94.25792170000204,,009,P022,2025_May_13_1809,ConditionRich,2021.2.3,59.91830738196662,
67.0,67.75,1,0.75,Stimuli/P016/sun_aacpzgqrortyhyss.jpg,0,0,0.0,0,127,127,127,,,,,,,,,,,,,67.00793969999359,0.007939699993585236,None,94.49146409999958,94.49146409999958,94.49146409999958,94.49146409999958,94.49146409999958,94.49146409999958,94.49146409999958,94.49146409999958,94.49146409999958,94.49146409999958,,009,P022,2025_May_13_1809,ConditionRich,2021.2.3,59.91830738196662,
67.75,68.0,41,0.0,Stimuli/Blank.png,0,0,0.0,0,128,128,128,,,,,,,,,,,,,67.75974669999414,0.009746699994138908,None,95.25882719999936,95.25882719999936,95.25882719999936,95.25882719999936,95.25882719999936,95.25882719999936,95.25882719999936,95.25882719999936,95.25882719999936,95.25882719999936,,009,P022,2025_May_13_1809,ConditionRich,2021.2.3,59.91830738196662,
68.0,68.75,29,0.75,Stimuli/P016/things_mouse1_08s.jpg,0,0,0.0,0,129,129,129,,,,,,,,,,,,,68.02608159999363,0.026081599993631244,None,95.52573129999655,95.52573129999655,95.52573129999655,95.52573129999655,95.52573129999655,95.52573129999655,95.52573129999655,95.52573129999655,95.52573129999655,95.52573129999655,,009,P022,2025_May_13_1809,ConditionRich,2021.2.3,59.91830738196662,
68.75,69.0,41,0.0,Stimuli/Blank.png,0,0,0.0,0,130,130,130,,,,,,,,,,,,,68.77854009999282,0.028540099992824253,None,96.27637739999773,96.27637739999773,96.27637739999773,96.27637739999773,96.27637739999773,96.27637739999773,96.27637739999773,96.27637739999773,96.27637739999773,96.27637739999773,,009,P022,2025_May_13_1809,ConditionRich,2021.2.3,59.91830738196662,
69.0,69.75,29,0.75,Stimuli/P016/things_mouse1_08s.jpg,0,0,0.0,0,131,131,131,,,,,,,,,,,,,69.02714359999663,0.027143599996634293,None,96.5099132999967,96.5099132999967,96.5099132999967,96.5099132999967,96.5099132999967,96.5099132999967,96.5099132999967,96.5099132999967,96.5099132999967,96.5099132999967,,009,P022,2025_May_13_1809,ConditionRich,2021.2.3,59.91830738196662,
69.75,70.0,41,0.0,Stimuli/Blank.png,0,0,0.0,0,132,132,132,,,,,,,,,,,,,69.7611814999982,0.011181499998201616,None,97.24390039999707,97.24390039999707,97.24390039999707,97.24390039999707,97.24390039999707,97.24390039999707,97.24390039999707,97.24390039999707,97.24390039999707,97.24390039999707,,009,P022,2025_May_13_1809,ConditionRich,2021.2.3,59.91830738196662,
70.0,70.75,29,0.75,Stimuli/P016/things_mouse1_08s.jpg,0,0,0.0,0,133,133,133,,,,,,,,,,,,,70.01043359999312,0.010433599993120879,None,97.49410889999854,97.49410889999854,97.49410889999854,97.49410889999854,97.49410889999854,97.49410889999854,97.49410889999854,97.49410889999854,97.49410889999854,97.49410889999854,,009,P022,2025_May_13_1809,ConditionRich,2021.2.3,59.91830738196662,
70.75,71.0,41,0.0,Stimuli/Blank.png,0,0,0.0,0,134,134,134,,,,,,,,,,,,,70.76391099999455,0.013910999994550366,None,98.26147299999866,98.26147299999866,98.26147299999866,98.26147299999866,98.26147299999866,98.26147299999866,98.26147299999866,98.26147299999866,98.26147299999866,98.26147299999866,,009,P022,2025_May_13_1809,ConditionRich,2021.2.3,59.91830738196662,
71.0,71.75,29,0.75,Stimuli/P016/things_mouse1_08s.jpg,0,0,0.0,0,135,135,135,,,,,,,,,,,,,71.02903559999686,0.029035599996859673,None,98.5283614,98.5283614,98.5283614,98.5283614,98.5283614,98.5283614,98.5283614,98.5283614,98.5283614,98.5283614,,009,P022,2025_May_13_1809,ConditionRich,2021.2.3,59.91830738196662,
71.75,72.0,41,0.0,Stimuli/Blank.png,0,0,0.0,0,136,136,136,,,,,,,,,,,,,71.77938269999868,0.029382699998677708,None,99.26235029999953,99.26235029999953,99.26235029999953,99.26235029999953,99.26235029999953,99.26235029999953,99.26235029999953,99.26235029999953,99.26235029999953,99.26235029999953,,009,P022,2025_May_13_1809,ConditionRich,2021.2.3,59.91830738196662,
72.0,72.75,3,0.75,Stimuli/P016/sun_aiogwnavezqxkzfg.jpg,0,0,0.0,0,137,137,137,,,,,,,,,,,,,72.01330429999507,0.013304299995070323,None,99.49588719999883,99.49588719999883,99.49588719999883,99.49588719999883,99.49588719999883,99.49588719999883,99.49588719999883,99.49588719999883,99.49588719999883,99.49588719999883,,009,P022,2025_May_13_1809,ConditionRich,2021.2.3,59.91830738196662,
72.75,73.0,41,0.0,Stimuli/Blank.png,0,0,0.0,0,138,138,138,,,,,,,,,,,,,72.76300209999317,0.013002099993173033,None,100.2465486000001,100.2465486000001,100.2465486000001,100.2465486000001,100.2465486000001,100.2465486000001,100.2465486000001,100.2465486000001,100.2465486000001,100.2465486000001,,009,P022,2025_May_13_1809,ConditionRich,2021.2.3,59.91830738196662,
73.0,73.75,3,0.75,Stimuli/P016/sun_aiogwnavezqxkzfg.jpg,0,0,0.0,0,139,139,139,,,,,,,,,,,,,73.01415119999729,0.014151199997286312,None,100.49677559999691,100.49677559999691,100.49677559999691,100.49677559999691,100.49677559999691,100.49677559999691,100.49677559999691,100.49677559999691,100.49677559999691,100.49677559999691,,009,P022,2025_May_13_1809,ConditionRich,2021.2.3,59.91830738196662,
73.75,74.0,41,0.0,Stimuli/Blank.png,0,0,0.0,0,140,140,140,,,,,,,,,,,,,73.76506999999401,0.015069999994011596,None,101.24744880000071,101.24744880000071,101.24744880000071,101.24744880000071,101.24744880000071,101.24744880000071,101.24744880000071,101.24744880000071,101.24744880000071,101.24744880000071,,009,P022,2025_May_13_1809,ConditionRich,2021.2.3,59.91830738196662,
74.0,74.75,3,0.75,Stimuli/P016/sun_aiogwnavezqxkzfg.jpg,0,0,0.0,0,141,141,141,,,,,,,,,,,,,74.01401079999778,0.014010799997777212,None,101.49764950000099,101.49764950000099,101.49764950000099,101.49764950000099,101.49764950000099,101.49764950000099,101.49764950000099,101.49764950000099,101.49764950000099,101.49764950000099,,009,P022,2025_May_13_1809,ConditionRich,2021.2.3,59.91830738196662,
74.75,75.0,41,0.0,Stimuli/Blank.png,0,0,0.0,0,142,142,142,,,,,,,,,,,,,74.76476739999634,0.014767399996344466,None,102.24831190000259,102.24831190000259,102.24831190000259,102.24831190000259,102.24831190000259,102.24831190000259,102.24831190000259,102.24831190000259,102.24831190000259,102.24831190000259,,009,P022,2025_May_13_1809,ConditionRich,2021.2.3,59.91830738196662,
75.0,75.75,3,0.75,Stimuli/P016/sun_aiogwnavezqxkzfg.jpg,0,0,0.0,0,143,143,143,,,,,,,,,,,,,75.01498179999908,0.014981799999077339,None,102.51519050000206,102.51519050000206,102.51519050000206,102.51519050000206,102.51519050000206,102.51519050000206,102.51519050000206,102.51519050000206,102.51519050000206,102.51519050000206,,009,P022,2025_May_13_1809,ConditionRich,2021.2.3,59.91830738196662,
75.75,76.0,41,0.0,Stimuli/Blank.png,0,0,0.0,0,144,144,144,,,,,,,,,,,,,75.76859779999359,0.018597799993585795,None,103.26591670000198,103.26591670000198,103.26591670000198,103.26591670000198,103.26591670000198,103.26591670000198,103.26591670000198,103.26591670000198,103.26591670000198,103.26591670000198,,009,P022,2025_May_13_1809,ConditionRich,2021.2.3,59.91830738196662,
76.0,76.75,40,0.75,Stimuli/P016/things_woman_08s.jpg,0,0,0.0,0,145,145,145,,,,,,,,,,,,,76.01578649999283,0.015786499992827885,None,103.49942010000086,103.49942010000086,103.49942010000086,103.49942010000086,103.49942010000086,103.49942010000086,103.49942010000086,103.49942010000086,103.49942010000086,103.49942010000086,,009,P022,2025_May_13_1809,ConditionRich,2021.2.3,59.91830738196662,
76.75,77.0,41,0.0,Stimuli/Blank.png,0,0,0.0,0,146,146,146,,,,,,,,,,,,,76.74989359999745,-0.0001064000025507994,None,104.23340499999904,104.23340499999904,104.23340499999904,104.23340499999904,104.23340499999904,104.23340499999904,104.23340499999904,104.23340499999904,104.23340499999904,104.23340499999904,,009,P022,2025_May_13_1809,ConditionRich,2021.2.3,59.91830738196662,
77.0,77.75,40,0.75,Stimuli/P016/things_woman_08s.jpg,0,0,0.0,0,147,147,147,,,,,,,,,,,,,77.00006379999832,6.379999831551686e-05,None,104.48362529999577,104.48362529999577,104.48362529999577,104.48362529999577,104.48362529999577,104.48362529999577,104.48362529999577,104.48362529999577,104.48362529999577,104.48362529999577,,009,P022,2025_May_13_1809,ConditionRich,2021.2.3,59.91830738196662,
77.75,78.0,41,0.0,Stimuli/Blank.png,0,0,0.0,0,148,148,148,,,,,,,,,,,,,77.75437699999748,0.00437699999747565,None,105.25099890000274,105.25099890000274,105.25099890000274,105.25099890000274,105.25099890000274,105.25099890000274,105.25099890000274,105.25099890000274,105.25099890000274,105.25099890000274,,009,P022,2025_May_13_1809,ConditionRich,2021.2.3,59.91830738196662,
78.0,78.75,40,0.75,Stimuli/P016/things_woman_08s.jpg,0,0,0.0,0,149,149,149,,,,,,,,,,,,,78.0184322999994,0.018432299999403767,None,105.51787909999985,105.51787909999985,105.51787909999985,105.51787909999985,105.51787909999985,105.51787909999985,105.51787909999985,105.51787909999985,105.51787909999985,105.51787909999985,,009,P022,2025_May_13_1809,ConditionRich,2021.2.3,59.91830738196662,
78.75,79.0,41,0.0,Stimuli/Blank.png,0,0,0.0,0,150,150,150,,,,,,,,,,,,,78.76883799999632,0.01883799999632174,None,106.25186499999836,106.25186499999836,106.25186499999836,106.25186499999836,106.25186499999836,106.25186499999836,106.25186499999836,106.25186499999836,106.25186499999836,106.25186499999836,,009,P022,2025_May_13_1809,ConditionRich,2021.2.3,59.91830738196662,
79.0,79.75,40,0.75,Stimuli/P016/things_woman_08s.jpg,0,0,0.0,0,151,151,151,,,,,,,,,,,,,79.00493309999729,0.004933099997288082,None,106.50208600000042,106.50208600000042,106.50208600000042,106.50208600000042,106.50208600000042,106.50208600000042,106.50208600000042,106.50208600000042,106.50208600000042,106.50208600000042,,009,P022,2025_May_13_1809,ConditionRich,2021.2.3,59.91830738196662,
79.75,80.0,41,0.0,Stimuli/Blank.png,0,0,0.0,0,152,152,152,,,,,,,,,,,,,79.77031249999709,0.020312499997089617,None,107.25274699999864,107.25274699999864,107.25274699999864,107.25274699999864,107.25274699999864,107.25274699999864,107.25274699999864,107.25274699999864,107.25274699999864,107.25274699999864,,009,P022,2025_May_13_1809,ConditionRich,2021.2.3,59.91830738196662,
80.0,80.75,34,0.75,Stimuli/P016/things_shower_cap_08s.jpg,0,0,0.0,0,153,153,153,,,,,,,,,,,,,80.00331309999456,0.0033130999945569783,None,107.48628640000243,107.48628640000243,107.48628640000243,107.48628640000243,107.48628640000243,107.48628640000243,107.48628640000243,107.48628640000243,107.48628640000243,107.48628640000243,,009,P022,2025_May_13_1809,ConditionRich,2021.2.3,59.91830738196662,
80.75,81.0,41,0.0,Stimuli/Blank.png,0,0,0.0,0,154,154,154,,,,,,,,,,,,,80.75376669999969,0.003766699999687262,None,108.2369464000003,108.2369464000003,108.2369464000003,108.2369464000003,108.2369464000003,108.2369464000003,108.2369464000003,108.2369464000003,108.2369464000003,108.2369464000003,,009,P022,2025_May_13_1809,ConditionRich,2021.2.3,59.91830738196662,
81.0,81.75,34,0.75,Stimuli/P016/things_shower_cap_08s.jpg,0,0,0.0,0,155,155,155,,,,,,,,,,,,,81.00343759999669,0.003437599996686913,None,108.48714240000118,108.48714240000118,108.48714240000118,108.48714240000118,108.48714240000118,108.48714240000118,108.48714240000118,108.48714240000118,108.48714240000118,108.48714240000118,,009,P022,2025_May_13_1809,ConditionRich,2021.2.3,59.91830738196662,
81.75,82.0,41,0.0,Stimuli/Blank.png,0,0,0.0,0,156,156,156,,,,,,,,,,,,,81.75506049999967,0.0050604999996721745,None,109.23782619999838,109.23782619999838,109.23782619999838,109.23782619999838,109.23782619999838,109.23782619999838,109.23782619999838,109.23782619999838,109.23782619999838,109.23782619999838,,009,P022,2025_May_13_1809,ConditionRich,2021.2.3,59.91830738196662,
82.0,82.75,34,0.75,Stimuli/P016/things_shower_cap_08s.jpg,0,0,0.0,0,157,157,157,,,,,,,,,,,,,82.00461929999437,0.00461929999437416,None,109.48804859999655,109.48804859999655,109.48804859999655,109.48804859999655,109.48804859999655,109.48804859999655,109.48804859999655,109.48804859999655,109.48804859999655,109.48804859999655,,009,P022,2025_May_13_1809,ConditionRich,2021.2.3,59.91830738196662,
82.75,83.0,41,0.0,Stimuli/Blank.png,0,0,0.0,0,158,158,158,,,,,,,,,,,,,82.75619769999321,0.006197699993208516,None,110.23880320000171,110.23880320000171,110.23880320000171,110.23880320000171,110.23880320000171,110.23880320000171,110.23880320000171,110.23880320000171,110.23880320000171,110.23880320000171,,009,P022,2025_May_13_1809,ConditionRich,2021.2.3,59.91830738196662,
83.0,83.75,34,0.75,Stimuli/P016/things_shower_cap_08s.jpg,0,0,0.0,0,159,159,159,,,,,,,,,,,,,83.0062878999961,0.006287899996095803,None,110.48892530000012,110.48892530000012,110.48892530000012,110.48892530000012,110.48892530000012,110.48892530000012,110.48892530000012,110.48892530000012,110.48892530000012,110.48892530000012,,009,P022,2025_May_13_1809,ConditionRich,2021.2.3,59.91830738196662,
83.75,84.0,41,0.0,Stimuli/Blank.png,0,0,0.0,0,160,160,160,,,,,,,,,,,,,83.75934259999485,0.009342599994852208,None,111.25629089999711,111.25629089999711,111.25629089999711,111.25629089999711,111.25629089999711,111.25629089999711,111.25629089999711,111.25629089999711,111.25629089999711,111.25629089999711,,009,P022,2025_May_13_1809,ConditionRich,2021.2.3,59.91830738196662,
84.0,100.0,0,0.0,Stimuli/Blank.png,1,3,3.75,0,161,161,161,,,,,,,,,,,,,84.02311209999607,0.023112099996069446,1,111.50650119999773,111.50650119999773,111.50650119999773,111.50650119999773,111.50650119999773,111.50650119999773,114.49246839999978,115.24313779999648,111.50650119999773,111.50650119999773,3.612753800000064,009,P022,2025_May_13_1809,ConditionRich,2021.2.3,59.91830738196662,
100.0,100.75,14,0.75,Stimuli/P016/sun_bpvmkbyglkraoxhh.jpg,0,0,0.0,0,162,162,162,,,,,,,,,,,,,100.004915599995,0.004915599995001685,None,127.50397749999684,127.50397749999684,127.50397749999684,127.50397749999684,127.50397749999684,127.50397749999684,127.50397749999684,127.50397749999684,127.50397749999684,127.50397749999684,,009,P022,2025_May_13_1809,ConditionRich,2021.2.3,59.91830738196662,
100.75,101.0,41,0.0,Stimuli/Blank.png,0,0,0.0,0,163,163,163,,,,,,,,,,,,,100.77396519999456,0.02396519999456359,None,128.27132900000288,128.27132900000288,128.27132900000288,128.27132900000288,128.27132900000288,128.27132900000288,128.27132900000288,128.27132900000288,128.27132900000288,128.27132900000288,,009,P022,2025_May_13_1809,ConditionRich,2021.2.3,59.91830738196662,
101.0,101.75,14,0.75,Stimuli/P016/sun_bpvmkbyglkraoxhh.jpg,0,0,0.0,0,164,164,164,,,,,,,,,,,,,101.02199099999416,0.02199099999415921,None,128.52154439999867,128.52154439999867,128.52154439999867,128.52154439999867,128.52154439999867,128.52154439999867,128.52154439999867,128.52154439999867,128.52154439999867,128.52154439999867,,009,P022,2025_May_13_1809,ConditionRich,2021.2.3,59.91830738196662,
101.75,102.0,41,0.0,Stimuli/Blank.png,0,0,0.0,0,165,165,165,,,,,,,,,,,,,101.77503999999317,0.02503999999316875,None,129.27217999999993,129.27217999999993,129.27217999999993,129.27217999999993,129.27217999999993,129.27217999999993,129.27217999999993,129.27217999999993,129.27217999999993,129.27217999999993,,009,P022,2025_May_13_1809,ConditionRich,2021.2.3,59.91830738196662,
102.0,102.75,14,0.75,Stimuli/P016/sun_bpvmkbyglkraoxhh.jpg,0,0,0.0,0,166,166,166,,,,,,,,,,,,,102.02426709999418,0.024267099994176533,None,129.52244410000276,129.52244410000276,129.52244410000276,129.52244410000276,129.52244410000276,129.52244410000276,129.52244410000276,129.52244410000276,129.52244410000276,129.52244410000276,,009,P022,2025_May_13_1809,ConditionRich,2021.2.3,59.91830738196662,
102.75,103.0,41,0.0,Stimuli/Blank.png,0,0,0.0,0,167,167,167,,,,,,,,,,,,,102.77419359999476,0.024193599994760007,None,130.25642119999975,130.25642119999975,130.25642119999975,130.25642119999975,130.25642119999975,130.25642119999975,130.25642119999975,130.25642119999975,130.25642119999975,130.25642119999975,,009,P022,2025_May_13_1809,ConditionRich,2021.2.3,59.91830738196662,
103.0,103.75,14,0.75,Stimuli/P016/sun_bpvmkbyglkraoxhh.jpg,0,0,0.0,0,168,168,168,,,,,,,,,,,,,103.00703489999432,0.007034899994323496,None,130.50663260000147,130.50663260000147,130.50663260000147,130.50663260000147,130.50663260000147,130.50663260000147,130.50663260000147,130.50663260000147,130.50663260000147,130.50663260000147,,009,P022,2025_May_13_1809,ConditionRich,2021.2.3,59.91830738196662,
103.75,104.0,41,0.0,Stimuli/Blank.png,0,0,0.0,0,169,169,169,,,,,,,,,,,,,103.77508349999698,0.025083499996981118,None,131.2740105999983,131.2740105999983,131.2740105999983,131.2740105999983,131.2740105999983,131.2740105999983,131.2740105999983,131.2740105999983,131.2740105999983,131.2740105999983,,009,P022,2025_May_13_1809,ConditionRich,2021.2.3,59.91830738196662,
104.0,104.75,31,0.75,Stimuli/P016/things_outlet_08s.jpg,0,0,0.0,0,170,170,170,,,,,,,,,,,,,104.02460900000005,0.024609000000054948,None,131.50751189999573,131.50751189999573,131.50751189999573,131.50751189999573,131.50751189999573,131.50751189999573,131.50751189999573,131.50751189999573,131.50751189999573,131.50751189999573,,009,P022,2025_May_13_1809,ConditionRich,2021.2.3,59.91830738196662,
104.75,105.0,41,0.0,Stimuli/Blank.png,0,0,0.0,0,171,171,171,,,,,,,,,,,,,104.7585501999929,0.008550199992896523,None,132.2415026000017,132.2415026000017,132.2415026000017,132.2415026000017,132.2415026000017,132.2415026000017,132.2415026000017,132.2415026000017,132.2415026000017,132.2415026000017,,009,P022,2025_May_13_1809,ConditionRich,2021.2.3,59.91830738196662,
105.0,105.75,31,0.75,Stimuli/P016/things_outlet_08s.jpg,0,0,0.0,0,172,172,172,,,,,,,,,,,,,105.0092802999934,0.009280299993406516,None,132.5084227999978,132.5084227999978,132.5084227999978,132.5084227999978,132.5084227999978,132.5084227999978,132.5084227999978,132.5084227999978,132.5084227999978,132.5084227999978,,009,P022,2025_May_13_1809,ConditionRich,2021.2.3,59.91830738196662,
105.75,106.0,41,0.0,Stimuli/Blank.png,0,0,0.0,0,173,173,173,,,,,,,,,,,,,105.77614369999355,0.026143699993554037,None,133.2590637999965,133.2590637999965,133.2590637999965,133.2590637999965,133.2590637999965,133.2590637999965,133.2590637999965,133.2590637999965,133.2590637999965,133.2590637999965,,009,P022,2025_May_13_1809,ConditionRich,2021.2.3,59.91830738196662,
106.0,106.75,31,0.75,Stimuli/P016/things_outlet_08s.jpg,0,0,0.0,0,174,174,174,,,,,,,,,,,,,106.00917559999652,0.009175599996524397,None,133.49260510000022,133.49260510000022,133.49260510000022,133.49260510000022,133.49260510000022,133.49260510000022,133.49260510000022,133.49260510000022,133.49260510000022,133.49260510000022,,009,P022,2025_May_13_1809,ConditionRich,2021.2.3,59.91830738196662,
106.75,107.0,41,0.0,Stimuli/Blank.png,0,0,0.0,0,175,175,175,,,,,,,,,,,,,106.76043769999524,0.010437699995236471,None,134.2432742000019,134.2432742000019,134.2432742000019,134.2432742000019,134.2432742000019,134.2432742000019,134.2432742000019,134.2432742000019,134.2432742000019,134.2432742000019,,009,P022,2025_May_13_1809,ConditionRich,2021.2.3,59.91830738196662,
107.0,107.75,31,0.75,Stimuli/P016/things_outlet_08s.jpg,0,0,0.0,0,176,176,176,,,,,,,,,,,,,107.00985929999297,0.009859299992967863,None,134.4934826999961,134.4934826999961,134.4934826999961,134.4934826999961,134.4934826999961,134.4934826999961,134.4934826999961,134.4934826999961,134.4934826999961,134.4934826999961,,009,P022,2025_May_13_1809,ConditionRich,2021.2.3,59.91830738196662,
107.75,108.0,41,0.0,Stimuli/Blank.png,0,0,0.0,0,177,177,177,,,,,,,,,,,,,107.76133569999365,0.01133569999365136,None,135.24417079999694,135.24417079999694,135.24417079999694,135.24417079999694,135.24417079999694,135.24417079999694,135.24417079999694,135.24417079999694,135.24417079999694,135.24417079999694,,009,P022,2025_May_13_1809,ConditionRich,2021.2.3,59.91830738196662,
108.0,108.75,22,0.75,Stimuli/P016/things_baby_08s.jpg,0,0,0.0,0,178,178,178,,,,,,,,,,,,,108.01142479999544,0.011424799995438661,None,135.5110913000026,135.5110913000026,135.5110913000026,135.5110913000026,135.5110913000026,135.5110913000026,135.5110913000026,135.5110913000026,135.5110913000026,135.5110913000026,,009,P022,2025_May_13_1809,ConditionRich,2021.2.3,59.91830738196662,
108.75,109.0,41,0.0,Stimuli/Blank.png,0,0,0.0,0,179,179,179,,,,,,,,,,,,,108.77931349999562,0.029313499995623715,None,136.26173689999996,136.26173689999996,136.26173689999996,136.26173689999996,136.26173689999996,136.26173689999996,136.26173689999996,136.26173689999996,136.26173689999996,136.26173689999996,,009,P022,2025_May_13_1809,ConditionRich,2021.2.3,59.91830738196662,
109.0,109.75,22,0.75,Stimuli/P016/things_baby_08s.jpg,0,0,0.0,0,180,180,180,,,,,,,,,,,,,109.01374329999817,0.013743299998168368,None,136.51195200000075,136.51195200000075,136.51195200000075,136.51195200000075,136.51195200000075,136.51195200000075,136.51195200000075,136.51195200000075,136.51195200000075,136.51195200000075,,009,P022,2025_May_13_1809,ConditionRich,2021.2.3,59.91830738196662,
109.75,110.0,41,0.0,Stimuli/Blank.png,0,0,0.0,0,181,181,181,,,,,,,,,,,,,109.78040259999398,0.030402599993976764,None,137.26261030000023,137.26261030000023,137.26261030000023,137.26261030000023,137.26261030000023,137.26261030000023,137.26261030000023,137.26261030000023,137.26261030000023,137.26261030000023,,009,P022,2025_May_13_1809,ConditionRich,2021.2.3,59.91830738196662,
110.0,110.75,22,0.75,Stimuli/P016/things_baby_08s.jpg,0,0,0.0,0,182,182,182,,,,,,,,,,,,,110.013031399998,0.01303139999799896,None,137.4961433999997,137.4961433999997,137.4961433999997,137.4961433999997,137.4961433999997,137.4961433999997,137.4961433999997,137.4961433999997,137.4961433999997,137.4961433999997,,009,P022,2025_May_13_1809,ConditionRich,2021.2.3,59.91830738196662,
110.75,111.0,41,0.0,Stimuli/Blank.png,0,0,0.0,0,183,183,183,,,,,,,,,,,,,110.76379809999344,0.013798099993437063,None,138.24682159999793,138.24682159999793,138.24682159999793,138.24682159999793,138.24682159999793,138.24682159999793,138.24682159999793,138.24682159999793,138.24682159999793,138.24682159999793,,009,P022,2025_May_13_1809,ConditionRich,2021.2.3,59.91830738196662,
111.0,111.75,22,0.75,Stimuli/P016/things_baby_08s.jpg,0,0,0.0,0,184,184,184,,,,,,,,,,,,,111.0138547999959,0.013854799995897338,None,138.49703449999652,138.49703449999652,138.49703449999652,138.49703449999652,138.49703449999652,138.49703449999652,138.49703449999652,138.49703449999652,138.49703449999652,138.49703449999652,,009,P022,2025_May_13_1809,ConditionRich,2021.2.3,59.91830738196662,
111.75,112.0,41,0.0,Stimuli/Blank.png,0,0,0.0,0,185,185,185,,,,,,,,,,,,,111.76415209999686,0.014152099996863399,None,139.24773149999965,139.24773149999965,139.24773149999965,139.24773149999965,139.24773149999965,139.24773149999965,139.24773149999965,139.24773149999965,139.24773149999965,139.24773149999965,,009,P022,2025_May_13_1809,ConditionRich,2021.2.3,59.91830738196662,
112.0,112.75,11,0.75,Stimuli/P016/sun_bnwmcjuinqbdsbho.jpg,0,0,0.0,0,186,186,186,,,,,,,,,,,,,112.01453279999987,0.014532799999869894,None,139.49796200000128,139.49796200000128,139.49796200000128,139.49796200000128,139.49796200000128,139.49796200000128,139.49796200000128,139.49796200000128,139.49796200000128,139.49796200000128,,009,P022,2025_May_13_1809,ConditionRich,2021.2.3,59.91830738196662,
112.75,113.0,41,0.0,Stimuli/Blank.png,0,0,0.0,0,187,187,187,,,,,,,,,,,,,112.7649609,0.014960900000005495,None,140.24858020000102,140.24858020000102,140.24858020000102,140.24858020000102,140.24858020000102,140.24858020000102,140.24858020000102,140.24858020000102,140.24858020000102,140.24858020000102,,009,P022,2025_May_13_1809,ConditionRich,2021.2.3,59.91830738196662,
113.0,113.75,11,0.75,Stimuli/P016/sun_bnwmcjuinqbdsbho.jpg,0,0,0.0,0,188,188,188,,,,,,,,,,,,,113.01525529999344,0.01525529999344144,None,140.49880459999986,140.49880459999986,140.49880459999986,140.49880459999986,140.49880459999986,140.49880459999986,140.49880459999986,140.49880459999986,140.49880459999986,140.49880459999986,,009,P022,2025_May_13_1809,ConditionRich,2021.2.3,59.91830738196662,
113.75,114.0,41,0.0,Stimuli/Blank.png,0,0,0.0,0,189,189,189,,,,,,,,,,,,,113.74919739999314,-0.0008026000068639405,None,141.23278749999736,141.23278749999736,141.23278749999736,141.23278749999736,141.23278749999736,141.23278749999736,141.23278749999736,141.23278749999736,141.23278749999736,141.23278749999736,,009,P022,2025_May_13_1809,ConditionRich,2021.2.3,59.91830738196662,
114.0,114.75,11,0.75,Stimuli/P016/sun_bnwmcjuinqbdsbho.jpg,0,0,0.0,0,190,190,190,,,,,,,,,,,,,113.99933279999823,-0.0006672000017715618,None,141.4830071999968,141.4830071999968,141.4830071999968,141.4830071999968,141.4830071999968,141.4830071999968,141.4830071999968,141.4830071999968,141.4830071999968,141.4830071999968,,009,P022,2025_May_13_1809,ConditionRich,2021.2.3,59.91830738196662,
114.75,115.0,41,0.0,Stimuli/Blank.png,0,0,0.0,0,191,191,191,,,,,,,,,,,,,114.7500019999934,1.9999934011138976e-06,None,142.23366610000085,142.23366610000085,142.23366610000085,142.23366610000085,142.23366610000085,142.23366610000085,142.23366610000085,142.23366610000085,142.23366610000085,142.23366610000085,,009,P022,2025_May_13_1809,ConditionRich,2021.2.3,59.91830738196662,
115.0,115.75,11,0.75,Stimuli/P016/sun_bnwmcjuinqbdsbho.jpg,0,0,0.0,0,192,192,192,,,,,,,,,,,,,115.0003460999942,0.00034609999420354143,None,142.48388500000146,142.48388500000146,142.48388500000146,142.48388500000146,142.48388500000146,142.48388500000146,142.48388500000146,142.48388500000146,142.48388500000146,142.48388500000146,,009,P022,2025_May_13_1809,ConditionRich,2021.2.3,59.91830738196662,
115.75,116.0,41,0.0,Stimuli/Blank.png,0,0,0.0,0,193,193,193,,,,,,,,,,,,,115.75145459999476,0.0014545999947586097,None,143.23457079999935,143.23457079999935,143.23457079999935,143.23457079999935,143.23457079999935,143.23457079999935,143.23457079999935,143.23457079999935,143.23457079999935,143.23457079999935,,009,P022,2025_May_13_1809,ConditionRich,2021.2.3,59.91830738196662,
116.0,116.75,15,0.75,Stimuli/P016/sun_bvfcijehgdsndfbg.jpg,0,0,0.0,0,194,194,194,,,,,,,,,,,,,116.00394529999903,0.003945299999031704,None,143.50144949999958,143.50144949999958,143.50144949999958,143.50144949999958,143.50144949999958,143.50144949999958,143.50144949999958,143.50144949999958,143.50144949999958,143.50144949999958,,009,P022,2025_May_13_1809,ConditionRich,2021.2.3,59.91830738196662,
116.75,117.0,41,0.0,Stimuli/Blank.png,0,0,0.0,0,195,195,195,,,,,,,,,,,,,116.7692723999935,0.019272399993496947,None,144.25213000000076,144.25213000000076,144.25213000000076,144.25213000000076,144.25213000000076,144.25213000000076,144.25213000000076,144.25213000000076,144.25213000000076,144.25213000000076,,009,P022,2025_May_13_1809,ConditionRich,2021.2.3,59.91830738196662,
117.0,117.75,15,0.75,Stimuli/P016/sun_bvfcijehgdsndfbg.jpg,0,0,0.0,0,196,196,196,,,,,,,,,,,,,117.00235619999876,0.002356199998757802,None,144.48566019999998,144.48566019999998,144.48566019999998,144.48566019999998,144.48566019999998,144.48566019999998,144.48566019999998,144.48566019999998,144.48566019999998,144.48566019999998,,009,P022,2025_May_13_1809,ConditionRich,2021.2.3,59.91830738196662,
117.75,118.0,41,0.0,Stimuli/Blank.png,0,0,0.0,0,197,197,197,,,,,,,,,,,,,117.75305009999283,0.003050099992833566,None,145.2365254999968,145.2365254999968,145.2365254999968,145.2365254999968,145.2365254999968,145.2365254999968,145.2365254999968,145.2365254999968,145.2365254999968,145.2365254999968,,009,P022,2025_May_13_1809,ConditionRich,2021.2.3,59.91830738196662,
118.0,118.75,15,0.75,Stimuli/P016/sun_bvfcijehgdsndfbg.jpg,0,0,0.0,0,198,198,198,,,,,,,,,,,,,118.00295059999917,0.002950599999167025,None,145.48653480000212,145.48653480000212,145.48653480000212,145.48653480000212,145.48653480000212,145.48653480000212,145.48653480000212,145.48653480000212,145.48653480000212,145.48653480000212,,009,P022,2025_May_13_1809,ConditionRich,2021.2.3,59.91830738196662,
118.75,119.0,41,0.0,Stimuli/Blank.png,0,0,0.0,0,199,199,199,,,,,,,,,,,,,118.75446609999926,0.004466099999262951,None,146.23721639999712,146.23721639999712,146.23721639999712,146.23721639999712,146.23721639999712,146.23721639999712,146.23721639999712,146.23721639999712,146.23721639999712,146.23721639999712,,009,P022,2025_May_13_1809,ConditionRich,2021.2.3,59.91830738196662,
119.0,119.75,15,0.75,Stimuli/P016/sun_bvfcijehgdsndfbg.jpg,0,0,0.0,0,200,200,200,,,,,,,,,,,,,119.00461059999361,0.004610599993611686,None,146.50410600000032,146.50410600000032,146.50410600000032,146.50410600000032,146.50410600000032,146.50410600000032,146.50410600000032,146.50410600000032,146.50410600000032,146.50410600000032,,009,P022,2025_May_13_1809,ConditionRich,2021.2.3,59.91830738196662,
119.75,120.0,41,0.0,Stimuli/Blank.png,0,0,0.0,0,201,201,201,,,,,,,,,,,,,119.77230929999496,0.022309299994958565,None,147.2547904000021,147.2547904000021,147.2547904000021,147.2547904000021,147.2547904000021,147.2547904000021,147.2547904000021,147.2547904000021,147.2547904000021,147.2547904000021,,009,P022,2025_May_13_1809,ConditionRich,2021.2.3,59.91830738196662,
120.0,120.75,38,0.75,Stimuli/P016/things_trumpet_08s.jpg,0,0,0.0,0,202,202,202,,,,,,,,,,,,,120.00538359999337,0.005383599993365351,None,147.50501529999747,147.50501529999747,147.50501529999747,147.50501529999747,147.50501529999747,147.50501529999747,147.50501529999747,147.50501529999747,147.50501529999747,147.50501529999747,,009,P022,2025_May_13_1809,ConditionRich,2021.2.3,59.91830738196662,
120.75,121.0,41,0.0,Stimuli/Blank.png,0,0,0.0,0,203,203,203,,,,,,,,,,,,,120.77462579999701,0.0246257999970112,None,148.27234979999776,148.27234979999776,148.27234979999776,148.27234979999776,148.27234979999776,148.27234979999776,148.27234979999776,148.27234979999776,148.27234979999776,148.27234979999776,,009,P022,2025_May_13_1809,ConditionRich,2021.2.3,59.91830738196662,
121.0,121.75,38,0.75,Stimuli/P016/things_trumpet_08s.jpg,0,0,0.0,0,204,204,204,,,,,,,,,,,,,121.02321239999583,0.02321239999582758,None,148.5058863000013,148.5058863000013,148.5058863000013,148.5058863000013,148.5058863000013,148.5058863000013,148.5058863000013,148.5058863000013,148.5058863000013,148.5058863000013,,009,P022,2025_May_13_1809,ConditionRich,2021.2.3,59.91830738196662,
121.75,122.0,41,0.0,Stimuli/Blank.png,0,0,0.0,0,205,205,205,,,,,,,,,,,,,121.75700339999457,0.007003399994573556,None,149.23987510000006,149.23987510000006,149.23987510000006,149.23987510000006,149.23987510000006,149.23987510000006,149.23987510000006,149.23987510000006,149.23987510000006,149.23987510000006,,009,P022,2025_May_13_1809,ConditionRich,2021.2.3,59.91830738196662,
122.0,122.75,38,0.75,Stimuli/P016/things_trumpet_08s.jpg,0,0,0.0,0,206,206,206,,,,,,,,,,,,,122.00741719999496,0.0074171999949612655,None,149.50677200000064,149.50677200000064,149.50677200000064,149.50677200000064,149.50677200000064,149.50677200000064,149.50677200000064,149.50677200000064,149.50677200000064,149.50677200000064,,009,P022,2025_May_13_1809,ConditionRich,2021.2.3,59.91830738196662,
122.75,123.0,41,0.0,Stimuli/Blank.png,0,0,0.0,0,207,207,207,,,,,,,,,,,,,122.7745838999981,0.024583899998106062,None,150.25742129999708,150.25742129999708,150.25742129999708,150.25742129999708,150.25742129999708,150.25742129999708,150.25742129999708,150.25742129999708,150.25742129999708,150.25742129999708,,009,P022,2025_May_13_1809,ConditionRich,2021.2.3,59.91830738196662,
123.0,123.75,38,0.75,Stimuli/P016/things_trumpet_08s.jpg,0,0,0.0,0,208,208,208,,,,,,,,,,,,,123.00725819999934,0.007258199999341741,None,150.49096209999698,150.49096209999698,150.49096209999698,150.49096209999698,150.49096209999698,150.49096209999698,150.49096209999698,150.49096209999698,150.49096209999698,150.49096209999698,,009,P022,2025_May_13_1809,ConditionRich,2021.2.3,59.91830738196662,
123.75,124.0,41,0.0,Stimuli/Blank.png,0,0,0.0,0,209,209,209,,,,,,,,,,,,,123.75958409999294,0.00958409999293508,None,151.24163289999706,151.24163289999706,151.24163289999706,151.24163289999706,151.24163289999706,151.24163289999706,151.24163289999706,151.24163289999706,151.24163289999706,151.24163289999706,,009,P022,2025_May_13_1809,ConditionRich,2021.2.3,59.91830738196662,
124.0,124.75,4,0.75,Stimuli/P016/sun_aiwuqxdqzftsfyeg.jpg,0,0,0.0,0,210,210,210,,,,,,,,,,,,,124.00927769999544,0.009277699995436706,None,151.491858100002,151.491858100002,151.491858100002,151.491858100002,151.491858100002,151.491858100002,151.491858100002,151.491858100002,151.491858100002,151.491858100002,,009,P022,2025_May_13_1809,ConditionRich,2021.2.3,59.91830738196662,
124.75,125.0,41,0.0,Stimuli/Blank.png,0,0,0.0,0,211,211,211,,,,,,,,,,,,,124.75902159999532,0.009021599995321594,None,152.24252649999835,152.24252649999835,152.24252649999835,152.24252649999835,152.24252649999835,152.24252649999835,152.24252649999835,152.24252649999835,152.24252649999835,152.24252649999835,,009,P022,2025_May_13_1809,ConditionRich,2021.2.3,59.91830738196662,
125.0,125.75,4,0.75,Stimuli/P016/sun_aiwuqxdqzftsfyeg.jpg,0,0,0.0,0,212,212,212,,,,,,,,,,,,,125.00975349999499,0.00975349999498576,None,152.49273459999677,152.49273459999677,152.49273459999677,152.49273459999677,152.49273459999677,152.49273459999677,152.49273459999677,152.49273459999677,152.49273459999677,152.49273459999677,,009,P022,2025_May_13_1809,ConditionRich,2021.2.3,59.91830738196662,
125.75,126.0,41,0.0,Stimuli/Blank.png,0,0,0.0,0,213,213,213,,,,,,,,,,,,,125.75985799999762,0.009857999997620936,None,153.24339950000285,153.24339950000285,153.24339950000285,153.24339950000285,153.24339950000285,153.24339950000285,153.24339950000285,153.24339950000285,153.24339950000285,153.24339950000285,,009,P022,2025_May_13_1809,ConditionRich,2021.2.3,59.91830738196662,
126.0,126.75,4,0.75,Stimuli/P016/sun_aiwuqxdqzftsfyeg.jpg,0,0,0.0,0,214,214,214,,,,,,,,,,,,,126.01006879999477,0.010068799994769506,None,153.49361859999772,153.49361859999772,153.49361859999772,153.49361859999772,153.49361859999772,153.49361859999772,153.49361859999772,153.49361859999772,153.49361859999772,153.49361859999772,,009,P022,2025_May_13_1809,ConditionRich,2021.2.3,59.91830738196662,
126.75,127.0,41,0.0,Stimuli/Blank.png,0,0,0.0,0,215,215,215,,,,,,,,,,,,,126.7636829999974,0.013682999997399747,None,154.26097740000114,154.26097740000114,154.26097740000114,154.26097740000114,154.26097740000114,154.26097740000114,154.26097740000114,154.26097740000114,154.26097740000114,154.26097740000114,,009,P022,2025_May_13_1809,ConditionRich,2021.2.3,59.91830738196662,
127.0,127.75,4,0.75,Stimuli/P016/sun_aiwuqxdqzftsfyeg.jpg,0,0,0.0,0,216,216,216,,,,,,,,,,,,,127.02916029999324,0.02916029999323655,None,154.5278765999974,154.5278765999974,154.5278765999974,154.5278765999974,154.5278765999974,154.5278765999974,154.5278765999974,154.5278765999974,154.5278765999974,154.5278765999974,,009,P022,2025_May_13_1809,ConditionRich,2021.2.3,59.91830738196662,
127.75,128.0,41,0.0,Stimuli/Blank.png,0,0,0.0,0,217,217,217,,,,,,,,,,,,,127.77918609999324,0.029186099993239623,None,155.26186040000175,155.26186040000175,155.26186040000175,155.26186040000175,155.26186040000175,155.26186040000175,155.26186040000175,155.26186040000175,155.26186040000175,155.26186040000175,,009,P022,2025_May_13_1809,ConditionRich,2021.2.3,59.91830738196662,
128.0,128.75,8,0.75,Stimuli/P016/sun_arldxotvfucvuudk.jpg,0,0,0.0,0,218,218,218,,,,,,,,,,,,,128.01176969999506,0.011769699995056726,None,155.49539299999742,155.49539299999742,155.49539299999742,155.49539299999742,155.49539299999742,155.49539299999742,155.49539299999742,155.49539299999742,155.49539299999742,155.49539299999742,,009,P022,2025_May_13_1809,ConditionRich,2021.2.3,59.91830738196662,
128.75,129.0,41,0.0,Stimuli/Blank.png,0,0,0.0,0,219,219,219,,,,,,,,,,,,,128.76325279999583,0.013252799995825626,None,156.24606179999682,156.24606179999682,156.24606179999682,156.24606179999682,156.24606179999682,156.24606179999682,156.24606179999682,156.24606179999682,156.24606179999682,156.24606179999682,,009,P022,2025_May_13_1809,ConditionRich,2021.2.3,59.91830738196662,
129.0,129.75,8,0.75,Stimuli/P016/sun_arldxotvfucvuudk.jpg,0,0,0.0,0,220,220,220,,,,,,,,,,,,,129.01333899999736,0.01333899999735877,None,156.51295859999664,156.51295859999664,156.51295859999664,156.51295859999664,156.51295859999664,156.51295859999664,156.51295859999664,156.51295859999664,156.51295859999664,156.51295859999664,,009,P022,2025_May_13_1809,ConditionRich,2021.2.3,59.91830738196662,
129.75,130.0,41,0.0,Stimuli/Blank.png,0,0,0.0,0,221,221,221,,,,,,,,,,,,,129.78007109999453,0.030071099994529504,None,157.26362679999875,157.26362679999875,157.26362679999875,157.26362679999875,157.26362679999875,157.26362679999875,157.26362679999875,157.26362679999875,157.26362679999875,157.26362679999875,,009,P022,2025_May_13_1809,ConditionRich,2021.2.3,59.91830738196662,
130.0,130.75,8,0.75,Stimuli/P016/sun_arldxotvfucvuudk.jpg,0,0,0.0,0,222,222,222,,,,,,,,,,,,,130.01349589999882,0.01349589999881573,None,157.49715809999907,157.49715809999907,157.49715809999907,157.49715809999907,157.49715809999907,157.49715809999907,157.49715809999907,157.49715809999907,157.49715809999907,157.49715809999907,,009,P022,2025_May_13_1809,ConditionRich,2021.2.3,59.91830738196662,
130.75,131.0,41,0.0,Stimuli/Blank.png,0,0,0.0,0,223,223,223,,,,,,,,,,,,,130.76495549999527,0.014955499995267019,None,158.24785110000084,158.24785110000084,158.24785110000084,158.24785110000084,158.24785110000084,158.24785110000084,158.24785110000084,158.24785110000084,158.24785110000084,158.24785110000084,,009,P022,2025_May_13_1809,ConditionRich,2021.2.3,59.91830738196662,
131.0,131.75,8,0.75,Stimuli/P016/sun_arldxotvfucvuudk.jpg,0,0,0.0,0,224,224,224,,,,,,,,,,,,,131.01592609999352,0.015926099993521348,None,158.51476040000125,158.51476040000125,158.51476040000125,158.51476040000125,158.51476040000125,158.51476040000125,158.51476040000125,158.51476040000125,158.51476040000125,158.51476040000125,,009,P022,2025_May_13_1809,ConditionRich,2021.2.3,59.91830738196662,
131.75,132.0,41,0.0,Stimuli/Blank.png,0,0,0.0,0,225,225,225,,,,,,,,,,,,,131.76596539999446,0.015965399994456675,None,159.24871130000247,159.24871130000247,159.24871130000247,159.24871130000247,159.24871130000247,159.24871130000247,159.24871130000247,159.24871130000247,159.24871130000247,159.24871130000247,,009,P022,2025_May_13_1809,ConditionRich,2021.2.3,59.91830738196662,
132.0,132.75,27,0.75,Stimuli/P016/things_girl_08s.jpg,0,0,0.0,0,226,226,226,,,,,,,,,,,,,131.99902549999388,-0.0009745000061229803,None,159.482213700001,159.482213700001,159.482213700001,159.482213700001,159.482213700001,159.482213700001,159.482213700001,159.482213700001,159.482213700001,159.482213700001,,009,P022,2025_May_13_1809,ConditionRich,2021.2.3,59.91830738196662,
132.75,133.0,41,0.0,Stimuli/Blank.png,0,0,0.0,0,227,227,227,,,,,,,,,,,,,132.74929509999492,-0.0007049000050756149,None,160.23290370000177,160.23290370000177,160.23290370000177,160.23290370000177,160.23290370000177,160.23290370000177,160.23290370000177,160.23290370000177,160.23290370000177,160.23290370000177,,009,P022,2025_May_13_1809,ConditionRich,2021.2.3,59.91830738196662,
133.0,133.75,27,0.75,Stimuli/P016/things_girl_08s.jpg,0,0,0.0,0,228,228,228,,,,,,,,,,,,,132.999476099998,-0.000523900002008304,None,160.48314109999774,160.48314109999774,160.48314109999774,160.48314109999774,160.48314109999774,160.48314109999774,160.48314109999774,160.48314109999774,160.48314109999774,160.48314109999774,,009,P022,2025_May_13_1809,ConditionRich,2021.2.3,59.91830738196662,
133.75,134.0,41,0.0,Stimuli/Blank.png,0,0,0.0,0,229,229,229,,,,,,,,,,,,,133.75106019999657,0.0010601999965729192,None,161.2338185999979,161.2338185999979,161.2338185999979,161.2338185999979,161.2338185999979,161.2338185999979,161.2338185999979,161.2338185999979,161.2338185999979,161.2338185999979,,009,P022,2025_May_13_1809,ConditionRich,2021.2.3,59.91830738196662,
134.0,134.75,27,0.75,Stimuli/P016/things_girl_08s.jpg,0,0,0.0,0,230,230,230,,,,,,,,,,,,,134.00108969999565,0.0010896999956457876,None,161.4839862000008,161.4839862000008,161.4839862000008,161.4839862000008,161.4839862000008,161.4839862000008,161.4839862000008,161.4839862000008,161.4839862000008,161.4839862000008,,009,P022,2025_May_13_1809,ConditionRich,2021.2.3,59.91830738196662,
134.75,135.0,41,0.0,Stimuli/Blank.png,0,0,0.0,0,231,231,231,,,,,,,,,,,,,134.75223829999595,0.00223829999595182,None,162.23472229999606,162.23472229999606,162.23472229999606,162.23472229999606,162.23472229999606,162.23472229999606,162.23472229999606,162.23472229999606,162.23472229999606,162.23472229999606,,009,P022,2025_May_13_1809,ConditionRich,2021.2.3,59.91830738196662,
135.0,135.75,27,0.75,Stimuli/P016/things_girl_08s.jpg,1,0,0.75,0,232,232,232,,,,,,,,,,,,,135.00144489999366,0.0014448999936576001,1,162.50161690000095,162.50161690000095,162.50161690000095,162.50161690000095,162.50161690000095,162.50161690000095,162.50161690000095,163.2193677999967,162.50161690000095,162.50161690000095,0.49770409999473486,009,P022,2025_May_13_1809,ConditionRich,2021.2.3,59.91830738196662,
135.75,136.0,41,0.0,Stimuli/Blank.png,0,0,0.0,0,233,233,233,,,,,,,,,,,,,135.7698293999929,0.019829399992886465,None,163.25285789999907,163.25285789999907,163.25285789999907,163.25285789999907,163.25285789999907,163.25285789999907,163.25285789999907,163.25285789999907,163.25285789999907,163.25285789999907,,009,P022,2025_May_13_1809,ConditionRich,2021.2.3,59.91830738196662,
136.0,136.75,2,0.75,Stimuli/P016/sun_agzfkftryitnqpxc.jpg,0,0,0.0,0,234,234,234,,,,,,,,,,,,,136.00362699999823,0.0036269999982323498,None,163.5025209000014,163.5025209000014,163.5025209000014,163.5025209000014,163.5025209000014,163.5025209000014,163.5025209000014,163.5025209000014,163.5025209000014,163.5025209000014,,009,P022,2025_May_13_1809,ConditionRich,2021.2.3,59.91830738196662,
136.75,137.0,41,0.0,Stimuli/Blank.png,0,0,0.0,0,235,235,235,,,,,,,,,,,,,136.769664499996,0.019664499995997176,None,164.25313399999868,164.25313399999868,164.25313399999868,164.25313399999868,164.25313399999868,164.25313399999868,164.25313399999868,164.25313399999868,164.25313399999868,164.25313399999868,,009,P022,2025_May_13_1809,ConditionRich,2021.2.3,59.91830738196662,
137.0,137.75,2,0.75,Stimuli/P016/sun_agzfkftryitnqpxc.jpg,0,0,0.0,0,236,236,236,,,,,,,,,,,,,137.00432489999366,0.004324899993662257,None,164.5033820000026,164.5033820000026,164.5033820000026,164.5033820000026,164.5033820000026,164.5033820000026,164.5033820000026,164.5033820000026,164.5033820000026,164.5033820000026,,009,P022,2025_May_13_1809,ConditionRich,2021.2.3,59.91830738196662,
137.75,138.0,41,0.0,Stimuli/Blank.png,0,0,0.0,0,237,237,237,,,,,,,,,,,,,137.77036839999346,0.020368399993458297,None,165.25402190000023,165.25402190000023,165.25402190000023,165.25402190000023,165.25402190000023,165.25402190000023,165.25402190000023,165.25402190000023,165.25402190000023,165.25402190000023,,009,P022,2025_May_13_1809,ConditionRich,2021.2.3,59.91830738196662,
138.0,138.75,2,0.75,Stimuli/P016/sun_agzfkftryitnqpxc.jpg,1,0,0.75,0,238,238,238,,,,,,,,,,,,,138.0040763999932,0.004076399993209634,1,165.487529799997,165.487529799997,165.487529799997,165.487529799997,165.487529799997,165.487529799997,165.487529799997,166.22153109999635,165.487529799997,165.487529799997,0.5009133999992628,009,P022,2025_May_13_1809,ConditionRich,2021.2.3,59.91830738196662,
138.75,139.0,41,0.0,Stimuli/Blank.png,0,0,0.0,0,239,239,239,,,,,,,,,,,,,138.7546227999992,0.004622799999197014,None,166.2382202000008,166.2382202000008,166.2382202000008,166.2382202000008,166.2382202000008,166.2382202000008,166.2382202000008,166.2382202000008,166.2382202000008,166.2382202000008,,009,P022,2025_May_13_1809,ConditionRich,2021.2.3,59.91830738196662,
139.0,139.75,2,0.75,Stimuli/P016/sun_agzfkftryitnqpxc.jpg,0,0,0.0,0,240,240,240,,,,,,,,,,,,,139.00494229999458,0.004942299994581845,None,166.5051289999974,166.5051289999974,166.5051289999974,166.5051289999974,166.5051289999974,166.5051289999974,166.5051289999974,166.5051289999974,166.5051289999974,166.5051289999974,,009,P022,2025_May_13_1809,ConditionRich,2021.2.3,59.91830738196662,
139.75,140.0,41,0.0,Stimuli/Blank.png,0,0,0.0,0,241,241,241,,,,,,,,,,,,,139.77502089999325,0.025020899993251078,None,167.27248220000183,167.27248220000183,167.27248220000183,167.27248220000183,167.27248220000183,167.27248220000183,167.27248220000183,167.27248220000183,167.27248220000183,167.27248220000183,,009,P022,2025_May_13_1809,ConditionRich,2021.2.3,59.91830738196662,
140.0,140.75,18,0.75,Stimuli/P016/sun_byavixgfuhzioilz.jpg,1,0,0.75,0,242,242,242,,,,,,,,,,,,,140.0232820999954,0.023282099995412864,1,167.50600639999902,167.50600639999902,167.50600639999902,167.50600639999902,167.50600639999902,167.50600639999902,167.50600639999902,None,167.50600639999902,167.50600639999902,0.4314144999952987,009,P022,2025_May_13_1809,ConditionRich,2021.2.3,59.91830738196662,
140.75,141.0,41,0.0,Stimuli/Blank.png,0,0,0.0,0,243,243,243,,,,,,,,,,,,,140.75919219999923,0.009192199999233708,None,168.25668929999665,168.25668929999665,168.25668929999665,168.25668929999665,168.25668929999665,168.25668929999665,168.25668929999665,168.25668929999665,168.25668929999665,168.25668929999665,,009,P022,2025_May_13_1809,ConditionRich,2021.2.3,59.91830738196662,
141.0,141.75,18,0.75,Stimuli/P016/sun_byavixgfuhzioilz.jpg,0,0,0.0,0,244,244,244,,,,,,,,,,,,,141.02431469999283,0.024314699992828537,None,168.52357369999663,168.52357369999663,168.52357369999663,168.52357369999663,168.52357369999663,168.52357369999663,168.52357369999663,168.52357369999663,168.52357369999663,168.52357369999663,,009,P022,2025_May_13_1809,ConditionRich,2021.2.3,59.91830738196662,
141.75,142.0,41,0.0,Stimuli/Blank.png,0,0,0.0,0,245,245,245,,,,,,,,,,,,,141.77479379999568,0.024793799995677546,None,169.25755519999802,169.25755519999802,169.25755519999802,169.25755519999802,169.25755519999802,169.25755519999802,169.25755519999802,169.25755519999802,169.25755519999802,169.25755519999802,,009,P022,2025_May_13_1809,ConditionRich,2021.2.3,59.91830738196662,
142.0,142.75,18,0.75,Stimuli/P016/sun_byavixgfuhzioilz.jpg,0,0,0.0,0,246,246,246,,,,,,,,,,,,,142.00801839999622,0.00801839999621734,None,169.4910957999964,169.4910957999964,169.4910957999964,169.4910957999964,169.4910957999964,169.4910957999964,169.4910957999964,169.4910957999964,169.4910957999964,169.4910957999964,,009,P022,2025_May_13_1809,ConditionRich,2021.2.3,59.91830738196662,
142.75,143.0,41,0.0,Stimuli/Blank.png,0,0,0.0,0,247,247,247,,,,,,,,,,,,,142.7591751,0.009175099999993108,None,170.2417695999975,170.2417695999975,170.2417695999975,170.2417695999975,170.2417695999975,170.2417695999975,170.2417695999975,170.2417695999975,170.2417695999975,170.2417695999975,,009,P022,2025_May_13_1809,ConditionRich,2021.2.3,59.91830738196662,
143.0,143.75,18,0.75,Stimuli/P016/sun_byavixgfuhzioilz.jpg,0,0,0.0,0,248,248,248,,,,,,,,,,,,,143.0094162999958,0.009416299995791633,None,170.50866569999926,170.50866569999926,170.50866569999926,170.50866569999926,170.50866569999926,170.50866569999926,170.50866569999926,170.50866569999926,170.50866569999926,170.50866569999926,,009,P022,2025_May_13_1809,ConditionRich,2021.2.3,59.91830738196662,
143.75,144.0,41,0.0,Stimuli/Blank.png,0,0,0.0,0,249,249,249,,,,,,,,,,,,,143.77588229999674,0.025882299996737856,None,171.27601380000124,171.27601380000124,171.27601380000124,171.27601380000124,171.27601380000124,171.27601380000124,171.27601380000124,171.27601380000124,171.27601380000124,171.27601380000124,,009,P022,2025_May_13_1809,ConditionRich,2021.2.3,59.91830738196662,
144.0,144.75,7,0.75,Stimuli/P016/sun_aqdfrmtvewaapuqs.jpg,0,0,0.0,0,250,250,250,,,,,,,,,,,,,144.0290831999955,0.029083199995511677,None,171.52623609999864,171.52623609999864,171.52623609999864,171.52623609999864,171.52623609999864,171.52623609999864,171.52623609999864,171.52623609999864,171.52623609999864,171.52623609999864,,009,P022,2025_May_13_1809,ConditionRich,2021.2.3,59.91830738196662,
144.75,145.0,41,0.0,Stimuli/Blank.png,0,0,0.0,0,251,251,251,,,,,,,,,,,,,144.77870119999716,0.028701199997158255,None,172.27690289999737,172.27690289999737,172.27690289999737,172.27690289999737,172.27690289999737,172.27690289999737,172.27690289999737,172.27690289999737,172.27690289999737,172.27690289999737,,009,P022,2025_May_13_1809,ConditionRich,2021.2.3,59.91830738196662,
145.0,145.75,7,0.75,Stimuli/P016/sun_aqdfrmtvewaapuqs.jpg,0,0,0.0,0,252,252,252,,,,,,,,,,,,,145.0298874999935,0.029887499993492384,None,172.5271212000007,172.5271212000007,172.5271212000007,172.5271212000007,172.5271212000007,172.5271212000007,172.5271212000007,172.5271212000007,172.5271212000007,172.5271212000007,,009,P022,2025_May_13_1809,ConditionRich,2021.2.3,59.91830738196662,
145.75,146.0,41,0.0,Stimuli/Blank.png,0,0,0.0,0,253,253,253,,,,,,,,,,,,,145.77807649999886,0.028076499998860527,None,173.26109569999971,173.26109569999971,173.26109569999971,173.26109569999971,173.26109569999971,173.26109569999971,173.26109569999971,173.26109569999971,173.26109569999971,173.26109569999971,,009,P022,2025_May_13_1809,ConditionRich,2021.2.3,59.91830738196662,
146.0,146.75,7,0.75,Stimuli/P016/sun_aqdfrmtvewaapuqs.jpg,0,0,0.0,0,254,254,254,,,,,,,,,,,,,146.0111667999954,0.011166799995407928,None,173.49463539999851,173.49463539999851,173.49463539999851,173.49463539999851,173.49463539999851,173.49463539999851,173.49463539999851,173.49463539999851,173.49463539999851,173.49463539999851,,009,P022,2025_May_13_1809,ConditionRich,2021.2.3,59.91830738196662,
146.75,147.0,41,0.0,Stimuli/Blank.png,0,0,0.0,0,255,255,255,,,,,,,,,,,,,146.76401419999456,0.01401419999456266,None,174.2620070999983,174.2620070999983,174.2620070999983,174.2620070999983,174.2620070999983,174.2620070999983,174.2620070999983,174.2620070999983,174.2620070999983,174.2620070999983,,009,P022,2025_May_13_1809,ConditionRich,2021.2.3,59.91830738196662,
147.0,147.75,7,0.75,Stimuli/P016/sun_aqdfrmtvewaapuqs.jpg,0,0,0.0,0,256,256,256,,,,,,,,,,,,,147.02846399999544,0.028463999995437916,None,174.51222609999968,174.51222609999968,174.51222609999968,174.51222609999968,174.51222609999968,174.51222609999968,174.51222609999968,174.51222609999968,174.51222609999968,174.51222609999968,,009,P022,2025_May_13_1809,ConditionRich,2021.2.3,59.91830738196662,
147.75,148.0,41,0.0,Stimuli/Blank.png,0,0,0.0,0,257,257,257,,,,,,,,,,,,,147.76302519999444,0.013025199994444847,None,175.2461930999998,175.2461930999998,175.2461930999998,175.2461930999998,175.2461930999998,175.2461930999998,175.2461930999998,175.2461930999998,175.2461930999998,175.2461930999998,,009,P022,2025_May_13_1809,ConditionRich,2021.2.3,59.91830738196662,
148.0,148.75,23,0.75,Stimuli/P016/things_boy_08s.jpg,0,0,0.0,0,258,258,258,,,,,,,,,,,,,148.0131537999987,0.013153799998690374,None,175.49640759999602,175.49640759999602,175.49640759999602,175.49640759999602,175.49640759999602,175.49640759999602,175.49640759999602,175.49640759999602,175.49640759999602,175.49640759999602,,009,P022,2025_May_13_1809,ConditionRich,2021.2.3,59.91830738196662,
148.75,149.0,41,0.0,Stimuli/Blank.png,0,0,0.0,0,259,259,259,,,,,,,,,,,,,148.76604249999946,0.016042499999457505,None,176.26375469999766,176.26375469999766,176.26375469999766,176.26375469999766,176.26375469999766,176.26375469999766,176.26375469999766,176.26375469999766,176.26375469999766,176.26375469999766,,009,P022,2025_May_13_1809,ConditionRich,2021.2.3,59.91830738196662,
149.0,149.75,23,0.75,Stimuli/P016/things_boy_08s.jpg,0,0,0.0,0,260,260,260,,,,,,,,,,,,,149.01434999999765,0.01434999999764841,None,176.49729349999689,176.49729349999689,176.49729349999689,176.49729349999689,176.49729349999689,176.49729349999689,176.49729349999689,176.49729349999689,176.49729349999689,176.49729349999689,,009,P022,2025_May_13_1809,ConditionRich,2021.2.3,59.91830738196662,
149.75,150.0,41,0.0,Stimuli/Blank.png,0,0,0.0,0,261,261,261,,,,,,,,,,,,,149.7664530999973,0.016453099997306708,None,177.26461059999565,177.26461059999565,177.26461059999565,177.26461059999565,177.26461059999565,177.26461059999565,177.26461059999565,177.26461059999565,177.26461059999565,177.26461059999565,,009,P022,2025_May_13_1809,ConditionRich,2021.2.3,59.91830738196662,
