eventStartTime,eventEndTime,eventCond,imSize,imFile,responseEvent,fixRespStart,fixRespEnd,Events.thisRepN,Events.thisTrialN,Events.thisN,Events.thisIndex,Instructions.started,Instructions.stopped,participantReadyResponse.keys,participantReadyResponse.rt,participantReadyResponse.started,participantReadyResponse.stopped,startWaitforTrigger,triggerResponse.keys,triggerResponse.rt,triggerResponse.started,triggerResponse.stopped,globalTimer,actualStartTime,startTimingDiff,participantResponse.keys,participantResponse.started,participantResponse.stopped,image.started,image.stopped,fixationOutside.started,fixationOutside.stopped,fixationResponse.started,fixationResponse.stopped,fixationInside.started,fixationInside.stopped,participantResponse.rt,session,participant,date,expName,psychopyVersion,frameRate,
,,,,,,,,,,,,11.718960900005186,None,1,6.863520999999309,11.718960900005186,None,,,,,,,,,,,,,,,,,,,,,004,P022,2025_May_13_1726,ConditionRich,2021.2.3,59.948120898065504,
,,,,,,,,,,,,,,,,,,18.596225799999957,5,16.487475699999777,18.609045300006983,None,,,,,,,,,,,,,,,,004,P022,2025_May_13_1726,ConditionRich,2021.2.3,59.948120898065504,
0.0,4.0,0,0.0,Stimuli/Blank.png,0,0.0,0.0,0,0,0,0,,,,,,,,,,,,35.11102140000003,0.03487389999645529,0.03487389999645529,None,35.15695690000575,None,35.15695690000575,None,35.15695690000575,None,35.15695690000575,35.15695690000575,35.15695690000575,None,,004,P022,2025_May_13_1726,ConditionRich,2021.2.3,59.948120898065504,
4.0,4.75,2,0.75,Stimuli/P016/sun_agzfkftryitnqpxc.jpg,0,0.0,0.0,0,1,1,1,,,,,,,,,,,,,4.005777799997304,0.0057777999973041005,None,39.14411090000067,39.14411090000067,39.14411090000067,39.14411090000067,39.14411090000067,39.14411090000067,39.14411090000067,39.14411090000067,39.14411090000067,39.14411090000067,,004,P022,2025_May_13_1726,ConditionRich,2021.2.3,59.948120898065504,
4.75,8.0,41,0.0,Stimuli/Blank.png,0,0.0,0.0,0,2,2,2,,,,,,,,,,,,,4.7695317000034265,0.019531700003426522,None,39.894764399999985,39.894764399999985,39.894764399999985,39.894764399999985,39.894764399999985,39.894764399999985,39.894764399999985,39.894764399999985,39.894764399999985,39.894764399999985,,004,P022,2025_May_13_1726,ConditionRich,2021.2.3,59.948120898065504,
8.0,8.75,33,0.75,Stimuli/P016/things_raccoon_08n.jpg,0,0.0,0.0,0,3,3,3,,,,,,,,,,,,,8.005770199997642,0.005770199997641612,None,43.13066460000118,43.13066460000118,43.13066460000118,43.13066460000118,43.13066460000118,43.13066460000118,43.13066460000118,43.13066460000118,43.13066460000118,43.13066460000118,,004,P022,2025_May_13_1726,ConditionRich,2021.2.3,59.948120898065504,
8.75,12.0,41,0.0,Stimuli/Blank.png,0,0.0,0.0,0,4,4,4,,,,,,,,,,,,,8.755749600000854,0.005749600000854116,None,43.88133370000287,43.88133370000287,43.88133370000287,43.88133370000287,43.88133370000287,43.88133370000287,43.88133370000287,43.88133370000287,43.88133370000287,43.88133370000287,,004,P022,2025_May_13_1726,ConditionRich,2021.2.3,59.948120898065504,
12.0,12.75,29,0.75,Stimuli/P016/things_mouse1_08s.jpg,0,0.0,0.0,0,5,5,5,,,,,,,,,,,,,12.009766399998625,0.009766399998625275,None,47.13474240000505,47.13474240000505,47.13474240000505,47.13474240000505,47.13474240000505,47.13474240000505,47.13474240000505,47.13474240000505,47.13474240000505,47.13474240000505,,004,P022,2025_May_13_1726,ConditionRich,2021.2.3,59.948120898065504,
12.75,16.0,41,0.0,Stimuli/Blank.png,0,0.0,0.0,0,6,6,6,,,,,,,,,,,,,12.75989860000118,0.009898600001179148,None,47.88488530000177,47.88488530000177,47.88488530000177,47.88488530000177,47.88488530000177,47.88488530000177,47.88488530000177,47.88488530000177,47.88488530000177,47.88488530000177,,004,P022,2025_May_13_1726,ConditionRich,2021.2.3,59.948120898065504,
16.0,16.75,12,0.75,Stimuli/P016/sun_boffixsnbbloarty.jpg,0,0.0,0.0,0,7,7,7,,,,,,,,,,,,,16.014960300002713,0.014960300002712756,None,51.15443830000004,51.15443830000004,51.15443830000004,51.15443830000004,51.15443830000004,51.15443830000004,51.15443830000004,51.15443830000004,51.15443830000004,51.15443830000004,,004,P022,2025_May_13_1726,ConditionRich,2021.2.3,59.948120898065504,
16.75,20.0,41,0.0,Stimuli/Blank.png,0,0.0,0.0,0,8,8,8,,,,,,,,,,,,,16.780158499997924,0.030158499997924082,None,51.905084400001215,51.905084400001215,51.905084400001215,51.905084400001215,51.905084400001215,51.905084400001215,51.905084400001215,51.905084400001215,51.905084400001215,51.905084400001215,,004,P022,2025_May_13_1726,ConditionRich,2021.2.3,59.948120898065504,
20.0,20.75,23,0.75,Stimuli/P016/things_boy_08s.jpg,0,0.0,0.0,0,9,9,9,,,,,,,,,,,,,20.00047910000285,0.0004791000028490089,None,55.14131520000228,55.14131520000228,55.14131520000228,55.14131520000228,55.14131520000228,55.14131520000228,55.14131520000228,55.14131520000228,55.14131520000228,55.14131520000228,,004,P022,2025_May_13_1726,ConditionRich,2021.2.3,59.948120898065504,
20.75,24.0,41,0.0,Stimuli/Blank.png,1,1.25,2.0,0,10,10,10,,,,,,,,,,,,,20.767523299997265,0.017523299997264985,1,55.891955099999905,55.891955099999905,55.891955099999905,55.891955099999905,55.891955099999905,55.891955099999905,57.12655559999985,57.87705730000016,55.891955099999905,55.891955099999905,1.607637099994463,004,P022,2025_May_13_1726,ConditionRich,2021.2.3,59.948120898065504,
24.0,24.75,38,0.75,Stimuli/P016/things_trumpet_08s.jpg,0,0.0,0.0,0,11,11,11,,,,,,,,,,,,,24.00260680000065,0.0026068000006489456,None,59.128152500001306,59.128152500001306,59.128152500001306,59.128152500001306,59.128152500001306,59.128152500001306,59.128152500001306,59.128152500001306,59.128152500001306,59.128152500001306,,004,P022,2025_May_13_1726,ConditionRich,2021.2.3,59.948120898065504,
24.75,28.0,41,0.0,Stimuli/Blank.png,0,0.0,0.0,0,12,12,12,,,,,,,,,,,,,24.753760599996895,0.003760599996894598,None,59.87881520000519,59.87881520000519,59.87881520000519,59.87881520000519,59.87881520000519,59.87881520000519,59.87881520000519,59.87881520000519,59.87881520000519,59.87881520000519,,004,P022,2025_May_13_1726,ConditionRich,2021.2.3,59.948120898065504,
28.0,28.75,17,0.75,Stimuli/P016/sun_bxhbltvqnpaciuzt.jpg,0,0.0,0.0,0,13,13,13,,,,,,,,,,,,,28.009000999998534,0.009000999998534098,None,63.14837300000363,63.14837300000363,63.14837300000363,63.14837300000363,63.14837300000363,63.14837300000363,63.14837300000363,63.14837300000363,63.14837300000363,63.14837300000363,,004,P022,2025_May_13_1726,ConditionRich,2021.2.3,59.948120898065504,
28.75,32.0,41,0.0,Stimuli/Blank.png,0,0.0,0.0,0,14,14,14,,,,,,,,,,,,,28.774101499999233,0.024101499999233056,None,63.89903810000396,63.89903810000396,63.89903810000396,63.89903810000396,63.89903810000396,63.89903810000396,63.89903810000396,63.89903810000396,63.89903810000396,63.89903810000396,,004,P022,2025_May_13_1726,ConditionRich,2021.2.3,59.948120898065504,
32.0,32.75,31,0.75,Stimuli/P016/things_outlet_08s.jpg,0,0.0,0.0,0,15,15,15,,,,,,,,,,,,,32.009574800002156,0.009574800002155825,None,67.13522380000359,67.13522380000359,67.13522380000359,67.13522380000359,67.13522380000359,67.13522380000359,67.13522380000359,67.13522380000359,67.13522380000359,67.13522380000359,,004,P022,2025_May_13_1726,ConditionRich,2021.2.3,59.948120898065504,
32.75,36.0,41,0.0,Stimuli/Blank.png,0,0.0,0.0,0,16,16,16,,,,,,,,,,,,,32.76108969999768,0.011089699997683056,None,67.88589320000028,67.88589320000028,67.88589320000028,67.88589320000028,67.88589320000028,67.88589320000028,67.88589320000028,67.88589320000028,67.88589320000028,67.88589320000028,,004,P022,2025_May_13_1726,ConditionRich,2021.2.3,59.948120898065504,
36.0,36.75,28,0.75,Stimuli/P016/things_latte_08s.jpg,0,0.0,0.0,0,17,17,17,,,,,,,,,,,,,36.01449649999995,0.014496499999950174,None,71.1387773000024,71.1387773000024,71.1387773000024,71.1387773000024,71.1387773000024,71.1387773000024,71.1387773000024,71.1387773000024,71.1387773000024,71.1387773000024,,004,P022,2025_May_13_1726,ConditionRich,2021.2.3,59.948120898065504,
36.75,40.0,41,0.0,Stimuli/Blank.png,0,0.0,0.0,0,18,18,18,,,,,,,,,,,,,36.76447129999724,0.01447129999723984,None,71.88944540000375,71.88944540000375,71.88944540000375,71.88944540000375,71.88944540000375,71.88944540000375,71.88944540000375,71.88944540000375,71.88944540000375,71.88944540000375,,004,P022,2025_May_13_1726,ConditionRich,2021.2.3,59.948120898065504,
40.0,40.75,18,0.75,Stimuli/P016/sun_byavixgfuhzioilz.jpg,0,0.0,0.0,0,19,19,19,,,,,,,,,,,,,40.00016090000281,0.00016090000281110406,None,75.12562760000583,75.12562760000583,75.12562760000583,75.12562760000583,75.12562760000583,75.12562760000583,75.12562760000583,75.12562760000583,75.12562760000583,75.12562760000583,,004,P022,2025_May_13_1726,ConditionRich,2021.2.3,59.948120898065504,
40.75,44.0,41,0.0,Stimuli/Blank.png,0,0.0,0.0,0,20,20,20,,,,,,,,,,,,,40.75111360000301,0.0011136000030091964,None,75.87637050000194,75.87637050000194,75.87637050000194,75.87637050000194,75.87637050000194,75.87637050000194,75.87637050000194,75.87637050000194,75.87637050000194,75.87637050000194,,004,P022,2025_May_13_1726,ConditionRich,2021.2.3,59.948120898065504,
44.0,44.75,11,0.75,Stimuli/P016/sun_bnwmcjuinqbdsbho.jpg,0,0.0,0.0,0,21,21,21,,,,,,,,,,,,,44.003450399999565,0.0034503999995649792,None,79.12915740000608,79.12915740000608,79.12915740000608,79.12915740000608,79.12915740000608,79.12915740000608,79.12915740000608,79.12915740000608,79.12915740000608,79.12915740000608,,004,P022,2025_May_13_1726,ConditionRich,2021.2.3,59.948120898065504,
44.75,48.0,41,0.0,Stimuli/Blank.png,0,0.0,0.0,0,22,22,22,,,,,,,,,,,,,44.75500940000347,0.005009400003473274,None,79.87982740000007,79.87982740000007,79.87982740000007,79.87982740000007,79.87982740000007,79.87982740000007,79.87982740000007,79.87982740000007,79.87982740000007,79.87982740000007,,004,P022,2025_May_13_1726,ConditionRich,2021.2.3,59.948120898065504,
48.0,48.75,1,0.75,Stimuli/P016/sun_aacpzgqrortyhyss.jpg,0,0.0,0.0,0,23,23,23,,,,,,,,,,,,,48.00792789999832,0.007927899998321664,None,83.13271140000143,83.13271140000143,83.13271140000143,83.13271140000143,83.13271140000143,83.13271140000143,83.13271140000143,83.13271140000143,83.13271140000143,83.13271140000143,,004,P022,2025_May_13_1726,ConditionRich,2021.2.3,59.948120898065504,
48.75,52.0,41,0.0,Stimuli/Blank.png,0,0.0,0.0,0,24,24,24,,,,,,,,,,,,,48.75839000000269,0.008390000002691522,None,83.88337820000015,83.88337820000015,83.88337820000015,83.88337820000015,83.88337820000015,83.88337820000015,83.88337820000015,83.88337820000015,83.88337820000015,83.88337820000015,,004,P022,2025_May_13_1726,ConditionRich,2021.2.3,59.948120898065504,
52.0,52.75,10,0.75,Stimuli/P016/sun_bfojpvrlsrtfyzio.jpg,0,0.0,0.0,0,25,25,25,,,,,,,,,,,,,52.01059440000245,0.010594400002446491,None,87.13625050000701,87.13625050000701,87.13625050000701,87.13625050000701,87.13625050000701,87.13625050000701,87.13625050000701,87.13625050000701,87.13625050000701,87.13625050000701,,004,P022,2025_May_13_1726,ConditionRich,2021.2.3,59.948120898065504,
52.75,56.0,41,0.0,Stimuli/Blank.png,0,0.0,0.0,0,26,26,26,,,,,,,,,,,,,52.76126539999677,0.01126539999677334,None,87.88691060000565,87.88691060000565,87.88691060000565,87.88691060000565,87.88691060000565,87.88691060000565,87.88691060000565,87.88691060000565,87.88691060000565,87.88691060000565,,004,P022,2025_May_13_1726,ConditionRich,2021.2.3,59.948120898065504,
56.0,56.75,30,0.75,Stimuli/P016/things_ottoman_08s.jpg,0,0.0,0.0,0,27,27,27,,,,,,,,,,,,,56.014890799997374,0.014890799997374415,None,91.13978150000185,91.13978150000185,91.13978150000185,91.13978150000185,91.13978150000185,91.13978150000185,91.13978150000185,91.13978150000185,91.13978150000185,91.13978150000185,,004,P022,2025_May_13_1726,ConditionRich,2021.2.3,59.948120898065504,
56.75,60.0,41,0.0,Stimuli/Blank.png,0,0.0,0.0,0,28,28,28,,,,,,,,,,,,,56.764913799997885,0.01491379999788478,None,91.89045730000362,91.89045730000362,91.89045730000362,91.89045730000362,91.89045730000362,91.89045730000362,91.89045730000362,91.89045730000362,91.89045730000362,91.89045730000362,,004,P022,2025_May_13_1726,ConditionRich,2021.2.3,59.948120898065504,
60.0,60.75,32,0.75,Stimuli/P016/things_pheasant_08s.jpg,0,0.0,0.0,0,29,29,29,,,,,,,,,,,,,60.00145340000017,0.0014534000001731329,None,95.14333110000007,95.14333110000007,95.14333110000007,95.14333110000007,95.14333110000007,95.14333110000007,95.14333110000007,95.14333110000007,95.14333110000007,95.14333110000007,,004,P022,2025_May_13_1726,ConditionRich,2021.2.3,59.948120898065504,
60.75,64.0,41,0.0,Stimuli/Blank.png,0,0.0,0.0,0,30,30,30,,,,,,,,,,,,,60.76949020000029,0.019490200000291225,None,95.89399270000285,95.89399270000285,95.89399270000285,95.89399270000285,95.89399270000285,95.89399270000285,95.89399270000285,95.89399270000285,95.89399270000285,95.89399270000285,,004,P022,2025_May_13_1726,ConditionRich,2021.2.3,59.948120898065504,
64.0,64.75,35,0.75,Stimuli/P016/things_squid_08s.jpg,0,0.0,0.0,0,31,31,31,,,,,,,,,,,,,64.00455350000266,0.004553500002657529,None,99.13017140000011,99.13017140000011,99.13017140000011,99.13017140000011,99.13017140000011,99.13017140000011,99.13017140000011,99.13017140000011,99.13017140000011,99.13017140000011,,004,P022,2025_May_13_1726,ConditionRich,2021.2.3,59.948120898065504,
64.75,68.0,41,0.0,Stimuli/Blank.png,0,0.0,0.0,0,32,32,32,,,,,,,,,,,,,64.7559145999985,0.005914599998504855,None,99.88084360000357,99.88084360000357,99.88084360000357,99.88084360000357,99.88084360000357,99.88084360000357,99.88084360000357,99.88084360000357,99.88084360000357,99.88084360000357,,004,P022,2025_May_13_1726,ConditionRich,2021.2.3,59.948120898065504,
68.0,68.75,5,0.75,Stimuli/P016/sun_ajgmxbrxdpmsaext.jpg,0,0.0,0.0,0,33,33,33,,,,,,,,,,,,,68.00878340000054,0.008783400000538677,None,103.13372710000112,103.13372710000112,103.13372710000112,103.13372710000112,103.13372710000112,103.13372710000112,103.13372710000112,103.13372710000112,103.13372710000112,103.13372710000112,,004,P022,2025_May_13_1726,ConditionRich,2021.2.3,59.948120898065504,
68.75,72.0,41,0.0,Stimuli/Blank.png,0,0.0,0.0,0,34,34,34,,,,,,,,,,,,,68.75972729999921,0.009727299999212846,None,103.88439530000323,103.88439530000323,103.88439530000323,103.88439530000323,103.88439530000323,103.88439530000323,103.88439530000323,103.88439530000323,103.88439530000323,103.88439530000323,,004,P022,2025_May_13_1726,ConditionRich,2021.2.3,59.948120898065504,
72.0,72.75,4,0.75,Stimuli/P016/sun_aiwuqxdqzftsfyeg.jpg,0,0.0,0.0,0,35,35,35,,,,,,,,,,,,,72.01421400000254,0.014214000002539251,None,107.15395750000607,107.15395750000607,107.15395750000607,107.15395750000607,107.15395750000607,107.15395750000607,107.15395750000607,107.15395750000607,107.15395750000607,107.15395750000607,,004,P022,2025_May_13_1726,ConditionRich,2021.2.3,59.948120898065504,
72.75,76.0,41,0.0,Stimuli/Blank.png,1,2.25,3.0,0,36,36,36,,,,,,,,,,,,,72.77895079999871,0.028950799998710863,1,107.90457680000691,107.90457680000691,107.90457680000691,107.90457680000691,107.90457680000691,107.90457680000691,110.13994660000026,110.89061630000651,107.90457680000691,107.90457680000691,2.761678999995638,004,P022,2025_May_13_1726,ConditionRich,2021.2.3,59.948120898065504,
76.0,76.75,37,0.75,Stimuli/P016/things_swizzle_stick_08s.jpg,1,0.0,0.75,0,37,37,37,,,,,,,,,,,,,76.0158298000024,0.015829800002393313,1,111.14079960000527,111.14079960000527,111.14079960000527,111.14079960000527,111.14079960000527,111.14079960000527,111.14079960000527,None,111.14079960000527,111.14079960000527,0.6344668999954592,004,P022,2025_May_13_1726,ConditionRich,2021.2.3,59.948120898065504,
76.75,80.0,41,0.0,Stimuli/Blank.png,0,0.0,0.0,0,38,38,38,,,,,,,,,,,,,76.74938839999959,-0.000611600000411272,None,111.87483870000142,111.87483870000142,111.87483870000142,111.87483870000142,111.87483870000142,111.87483870000142,111.87483870000142,111.87483870000142,111.87483870000142,111.87483870000142,,004,P022,2025_May_13_1726,ConditionRich,2021.2.3,59.948120898065504,
80.0,80.75,15,0.75,Stimuli/P016/sun_bvfcijehgdsndfbg.jpg,1,0.0,0.75,0,39,39,39,,,,,,,,,,,,,80.00287319999916,0.002873199999157805,1,115.12765090000175,115.12765090000175,115.12765090000175,115.12765090000175,115.12765090000175,115.12765090000175,115.12765090000175,115.86167310000019,115.12765090000175,115.12765090000175,0.444699200001196,004,P022,2025_May_13_1726,ConditionRich,2021.2.3,59.948120898065504,
80.75,84.0,41,0.0,Stimuli/Blank.png,0,0.0,0.0,0,40,40,40,,,,,,,,,,,,,80.75358119999873,0.003581199998734519,None,115.87832410000556,115.87832410000556,115.87832410000556,115.87832410000556,115.87832410000556,115.87832410000556,115.87832410000556,115.87832410000556,115.87832410000556,115.87832410000556,,004,P022,2025_May_13_1726,ConditionRich,2021.2.3,59.948120898065504,
84.0,100.0,0,0.0,Stimuli/Blank.png,1,8.0,8.75,0,41,41,41,,,,,,,,,,,,,84.0068637000004,0.006863700000394601,1,119.13122020000446,119.13122020000446,119.13122020000446,119.13122020000446,119.13122020000446,119.13122020000446,127.12156150000374,127.87228140000661,119.13122020000446,119.13122020000446,8.424430299994128,004,P022,2025_May_13_1726,ConditionRich,2021.2.3,59.948120898065504,
100.0,100.75,22,0.75,Stimuli/P016/things_baby_08s.jpg,0,0.0,0.0,0,42,42,42,,,,,,,,,,,,,100.00374520000332,0.0037452000033226795,None,135.12867530000221,135.12867530000221,135.12867530000221,135.12867530000221,135.12867530000221,135.12867530000221,135.12867530000221,135.12867530000221,135.12867530000221,135.12867530000221,,004,P022,2025_May_13_1726,ConditionRich,2021.2.3,59.948120898065504,
100.75,104.0,41,0.0,Stimuli/Blank.png,0,0.0,0.0,0,43,43,43,,,,,,,,,,,,,100.75445110000146,0.004451100001460873,None,135.87934590000077,135.87934590000077,135.87934590000077,135.87934590000077,135.87934590000077,135.87934590000077,135.87934590000077,135.87934590000077,135.87934590000077,135.87934590000077,,004,P022,2025_May_13_1726,ConditionRich,2021.2.3,59.948120898065504,
104.0,104.75,14,0.75,Stimuli/P016/sun_bpvmkbyglkraoxhh.jpg,1,0.0,0.75,0,44,44,44,,,,,,,,,,,,,104.00666069999716,0.0066606999971554615,1,139.1489114000069,139.1489114000069,139.1489114000069,139.1489114000069,139.1489114000069,139.1489114000069,139.1489114000069,139.86618780000572,139.1489114000069,139.1489114000069,0.5680146000013337,004,P022,2025_May_13_1726,ConditionRich,2021.2.3,59.948120898065504,
104.75,108.0,41,0.0,Stimuli/Blank.png,0,0.0,0.0,0,45,45,45,,,,,,,,,,,,,104.77478669999982,0.024786699999822304,None,139.899568300003,139.899568300003,139.899568300003,139.899568300003,139.899568300003,139.899568300003,139.899568300003,139.899568300003,139.899568300003,139.899568300003,,004,P022,2025_May_13_1726,ConditionRich,2021.2.3,59.948120898065504,
108.0,108.75,26,0.75,Stimuli/P016/things_face_08s.jpg,0,0.0,0.0,0,46,46,46,,,,,,,,,,,,,108.01097499999742,0.01097499999741558,None,143.13574200000585,143.13574200000585,143.13574200000585,143.13574200000585,143.13574200000585,143.13574200000585,143.13574200000585,143.13574200000585,143.13574200000585,143.13574200000585,,004,P022,2025_May_13_1726,ConditionRich,2021.2.3,59.948120898065504,
108.75,112.0,41,0.0,Stimuli/Blank.png,0,0.0,0.0,0,47,47,47,,,,,,,,,,,,,108.7607777000012,0.010777700001199264,None,143.88641250000364,143.88641250000364,143.88641250000364,143.88641250000364,143.88641250000364,143.88641250000364,143.88641250000364,143.88641250000364,143.88641250000364,143.88641250000364,,004,P022,2025_May_13_1726,ConditionRich,2021.2.3,59.948120898065504,
112.0,112.75,24,0.75,Stimuli/P016/things_bunkbed_08s.jpg,0,0.0,0.0,0,48,48,48,,,,,,,,,,,,,112.01387589999649,0.01387589999649208,None,147.1392907000045,147.1392907000045,147.1392907000045,147.1392907000045,147.1392907000045,147.1392907000045,147.1392907000045,147.1392907000045,147.1392907000045,147.1392907000045,,004,P022,2025_May_13_1726,ConditionRich,2021.2.3,59.948120898065504,
112.75,116.0,41,0.0,Stimuli/Blank.png,1,2.25,3.0,0,49,49,49,,,,,,,,,,,,,112.76514000000316,0.015140000003157184,1,147.8899556000033,147.8899556000033,147.8899556000033,147.8899556000033,147.8899556000033,147.8899556000033,150.12526470000012,150.87592290000612,147.8899556000033,147.8899556000033,2.6694508000000496,004,P022,2025_May_13_1726,ConditionRich,2021.2.3,59.948120898065504,
116.0,116.75,39,0.75,Stimuli/P016/things_window_08s.jpg,0,0.0,0.0,0,50,50,50,,,,,,,,,,,,,116.00286329999653,0.0028632999965338968,None,151.14282820000517,151.14282820000517,151.14282820000517,151.14282820000517,151.14282820000517,151.14282820000517,151.14282820000517,151.14282820000517,151.14282820000517,151.14282820000517,,004,P022,2025_May_13_1726,ConditionRich,2021.2.3,59.948120898065504,
116.75,120.0,41,0.0,Stimuli/Blank.png,0,0.0,0.0,0,51,51,51,,,,,,,,,,,,,116.76853890000348,0.018538900003477465,None,151.8934969000038,151.8934969000038,151.8934969000038,151.8934969000038,151.8934969000038,151.8934969000038,151.8934969000038,151.8934969000038,151.8934969000038,151.8934969000038,,004,P022,2025_May_13_1726,ConditionRich,2021.2.3,59.948120898065504,
120.0,120.75,16,0.75,Stimuli/P016/sun_bwhuwxazfqwuqhik.jpg,0,0.0,0.0,0,52,52,52,,,,,,,,,,,,,120.00441609999689,0.004416099996888079,None,155.129697400007,155.129697400007,155.129697400007,155.129697400007,155.129697400007,155.129697400007,155.129697400007,155.129697400007,155.129697400007,155.129697400007,,004,P022,2025_May_13_1726,ConditionRich,2021.2.3,59.948120898065504,
120.75,124.0,41,0.0,Stimuli/Blank.png,0,0.0,0.0,0,53,53,53,,,,,,,,,,,,,120.75482780000311,0.004827800003113225,None,155.88035310000123,155.88035310000123,155.88035310000123,155.88035310000123,155.88035310000123,155.88035310000123,155.88035310000123,155.88035310000123,155.88035310000123,155.88035310000123,,004,P022,2025_May_13_1726,ConditionRich,2021.2.3,59.948120898065504,
124.0,124.75,6,0.75,Stimuli/P016/sun_akecfasimgpbqcnt.jpg,0,0.0,0.0,0,54,54,54,,,,,,,,,,,,,124.00818330000038,0.008183300000382587,None,159.1332188000015,159.1332188000015,159.1332188000015,159.1332188000015,159.1332188000015,159.1332188000015,159.1332188000015,159.1332188000015,159.1332188000015,159.1332188000015,,004,P022,2025_May_13_1726,ConditionRich,2021.2.3,59.948120898065504,
124.75,128.0,41,0.0,Stimuli/Blank.png,1,1.25,2.0,0,55,55,55,,,,,,,,,,,,,124.75892469999962,0.008924699999624863,1,159.88389160000224,159.88389160000224,159.88389160000224,159.88389160000224,159.88389160000224,159.88389160000224,161.11832270000014,161.8689971000058,159.88389160000224,159.88389160000224,1.6964089999964926,004,P022,2025_May_13_1726,ConditionRich,2021.2.3,59.948120898065504,
128.0,128.75,9,0.75,Stimuli/P016/sun_bbdgftzhpkaklkll.jpg,0,0.0,0.0,0,56,56,56,,,,,,,,,,,,,128.01136979999865,0.011369799998647068,None,163.13676030000352,163.13676030000352,163.13676030000352,163.13676030000352,163.13676030000352,163.13676030000352,163.13676030000352,163.13676030000352,163.13676030000352,163.13676030000352,,004,P022,2025_May_13_1726,ConditionRich,2021.2.3,59.948120898065504,
128.75,132.0,41,0.0,Stimuli/Blank.png,0,0.0,0.0,0,57,57,57,,,,,,,,,,,,,128.764817700001,0.014817700001003686,None,163.90411670000321,163.90411670000321,163.90411670000321,163.90411670000321,163.90411670000321,163.90411670000321,163.90411670000321,163.90411670000321,163.90411670000321,163.90411670000321,,004,P022,2025_May_13_1726,ConditionRich,2021.2.3,59.948120898065504,
132.0,132.75,34,0.75,Stimuli/P016/things_shower_cap_08s.jpg,0,0.0,0.0,0,58,58,58,,,,,,,,,,,,,132.01465379999718,0.014653799997176975,None,167.14030910000292,167.14030910000292,167.14030910000292,167.14030910000292,167.14030910000292,167.14030910000292,167.14030910000292,167.14030910000292,167.14030910000292,167.14030910000292,,004,P022,2025_May_13_1726,ConditionRich,2021.2.3,59.948120898065504,
132.75,136.0,41,0.0,Stimuli/Blank.png,0,0.0,0.0,0,59,59,59,,,,,,,,,,,,,132.76620230000117,0.016202300001168624,None,167.89097660000698,167.89097660000698,167.89097660000698,167.89097660000698,167.89097660000698,167.89097660000698,167.89097660000698,167.89097660000698,167.89097660000698,167.89097660000698,,004,P022,2025_May_13_1726,ConditionRich,2021.2.3,59.948120898065504,
136.0,136.75,25,0.75,Stimuli/P016/things_deer_08s.jpg,0,0.0,0.0,0,60,60,60,,,,,,,,,,,,,136.00172649999877,0.0017264999987673946,None,171.1438527000064,171.1438527000064,171.1438527000064,171.1438527000064,171.1438527000064,171.1438527000064,171.1438527000064,171.1438527000064,171.1438527000064,171.1438527000064,,004,P022,2025_May_13_1726,ConditionRich,2021.2.3,59.948120898065504,
136.75,140.0,41,0.0,Stimuli/Blank.png,0,0.0,0.0,0,61,61,61,,,,,,,,,,,,,136.76962829999684,0.019628299996838905,None,171.89451300000655,171.89451300000655,171.89451300000655,171.89451300000655,171.89451300000655,171.89451300000655,171.89451300000655,171.89451300000655,171.89451300000655,171.89451300000655,,004,P022,2025_May_13_1726,ConditionRich,2021.2.3,59.948120898065504,
140.0,140.75,20,0.75,Stimuli/P016/sun_bzmxulijbnmshodq.jpg,0,0.0,0.0,0,62,62,62,,,,,,,,,,,,,140.00623700000142,0.006237000001419801,None,175.14737260000402,175.14737260000402,175.14737260000402,175.14737260000402,175.14737260000402,175.14737260000402,175.14737260000402,175.14737260000402,175.14737260000402,175.14737260000402,,004,P022,2025_May_13_1726,ConditionRich,2021.2.3,59.948120898065504,
140.75,144.0,41,0.0,Stimuli/Blank.png,0,0.0,0.0,0,63,63,63,,,,,,,,,,,,,140.7730356000029,0.02303560000291327,None,175.89806850000605,175.89806850000605,175.89806850000605,175.89806850000605,175.89806850000605,175.89806850000605,175.89806850000605,175.89806850000605,175.89806850000605,175.89806850000605,,004,P022,2025_May_13_1726,ConditionRich,2021.2.3,59.948120898065504,
144.0,144.75,8,0.75,Stimuli/P016/sun_arldxotvfucvuudk.jpg,0,0.0,0.0,0,64,64,64,,,,,,,,,,,,,144.00904420000006,0.00904420000006212,None,179.13424160000432,179.13424160000432,179.13424160000432,179.13424160000432,179.13424160000432,179.13424160000432,179.13424160000432,179.13424160000432,179.13424160000432,179.13424160000432,,004,P022,2025_May_13_1726,ConditionRich,2021.2.3,59.948120898065504,
144.75,148.0,41,0.0,Stimuli/Blank.png,0,0.0,0.0,0,65,65,65,,,,,,,,,,,,,144.75939539999672,0.009395399996719789,None,179.8849160000027,179.8849160000027,179.8849160000027,179.8849160000027,179.8849160000027,179.8849160000027,179.8849160000027,179.8849160000027,179.8849160000027,179.8849160000027,,004,P022,2025_May_13_1726,ConditionRich,2021.2.3,59.948120898065504,
148.0,148.75,13,0.75,Stimuli/P016/sun_bphvjnowixlryxot.jpg,0,0.0,0.0,0,66,66,66,,,,,,,,,,,,,148.0143801000013,0.014380100001289975,None,183.15446210000664,183.15446210000664,183.15446210000664,183.15446210000664,183.15446210000664,183.15446210000664,183.15446210000664,183.15446210000664,183.15446210000664,183.15446210000664,,004,P022,2025_May_13_1726,ConditionRich,2021.2.3,59.948120898065504,
148.75,152.0,41,0.0,Stimuli/Blank.png,0,0.0,0.0,0,67,67,67,,,,,,,,,,,,,148.78008479999698,0.030084799996984657,None,183.90511040000274,183.90511040000274,183.90511040000274,183.90511040000274,183.90511040000274,183.90511040000274,183.90511040000274,183.90511040000274,183.90511040000274,183.90511040000274,,004,P022,2025_May_13_1726,ConditionRich,2021.2.3,59.948120898065504,
152.0,152.75,19,0.75,Stimuli/P016/sun_bzhwvgrzvttqoexa.jpg,0,0.0,0.0,0,68,68,68,,,,,,,,,,,,,151.99903549999726,-0.0009645000027376227,None,187.12463600000046,187.12463600000046,187.12463600000046,187.12463600000046,187.12463600000046,187.12463600000046,187.12463600000046,187.12463600000046,187.12463600000046,187.12463600000046,,004,P022,2025_May_13_1726,ConditionRich,2021.2.3,59.948120898065504,
152.75,156.0,41,0.0,Stimuli/Blank.png,0,0.0,0.0,0,69,69,69,,,,,,,,,,,,,152.74988380000286,-0.00011619999713730067,None,187.8752997000047,187.8752997000047,187.8752997000047,187.8752997000047,187.8752997000047,187.8752997000047,187.8752997000047,187.8752997000047,187.8752997000047,187.8752997000047,,004,P022,2025_May_13_1726,ConditionRich,2021.2.3,59.948120898065504,
156.0,156.75,21,0.75,Stimuli/P016/things_arch_08s.jpg,0,0.0,0.0,0,70,70,70,,,,,,,,,,,,,156.00406829999702,0.004068299997015856,None,191.12819890000537,191.12819890000537,191.12819890000537,191.12819890000537,191.12819890000537,191.12819890000537,191.12819890000537,191.12819890000537,191.12819890000537,191.12819890000537,,004,P022,2025_May_13_1726,ConditionRich,2021.2.3,59.948120898065504,
156.75,160.0,41,0.0,Stimuli/Blank.png,0,0.0,0.0,0,71,71,71,,,,,,,,,,,,,156.75378649999766,0.0037864999976591207,None,191.87883750000037,191.87883750000037,191.87883750000037,191.87883750000037,191.87883750000037,191.87883750000037,191.87883750000037,191.87883750000037,191.87883750000037,191.87883750000037,,004,P022,2025_May_13_1726,ConditionRich,2021.2.3,59.948120898065504,
160.0,160.75,40,0.75,Stimuli/P016/things_woman_08s.jpg,0,0.0,0.0,0,72,72,72,,,,,,,,,,,,,160.0077631000022,0.0077631000021938235,None,195.14839240000583,195.14839240000583,195.14839240000583,195.14839240000583,195.14839240000583,195.14839240000583,195.14839240000583,195.14839240000583,195.14839240000583,195.14839240000583,,004,P022,2025_May_13_1726,ConditionRich,2021.2.3,59.948120898065504,
160.75,164.0,41,0.0,Stimuli/Blank.png,0,0.0,0.0,0,73,73,73,,,,,,,,,,,,,160.7743507999985,0.024350799998501316,None,195.89906390000397,195.89906390000397,195.89906390000397,195.89906390000397,195.89906390000397,195.89906390000397,195.89906390000397,195.89906390000397,195.89906390000397,195.89906390000397,,004,P022,2025_May_13_1726,ConditionRich,2021.2.3,59.948120898065504,
164.0,164.75,3,0.75,Stimuli/P016/sun_aiogwnavezqxkzfg.jpg,0,0.0,0.0,0,74,74,74,,,,,,,,,,,,,164.0102154999986,0.010215499998594169,None,199.13524970000435,199.13524970000435,199.13524970000435,199.13524970000435,199.13524970000435,199.13524970000435,199.13524970000435,199.13524970000435,199.13524970000435,199.13524970000435,,004,P022,2025_May_13_1726,ConditionRich,2021.2.3,59.948120898065504,
164.75,168.0,41,0.0,Stimuli/Blank.png,1,1.25,2.0,0,75,75,75,,,,,,,,,,,,,164.7605631999977,0.010563199997704942,1,199.8859117000029,199.8859117000029,199.8859117000029,199.8859117000029,199.8859117000029,199.8859117000029,201.12033960000554,201.87105060000613,199.8859117000029,199.8859117000029,1.6995621000023675,004,P022,2025_May_13_1726,ConditionRich,2021.2.3,59.948120898065504,
168.0,168.75,36,0.75,Stimuli/P016/things_streetlight_08s.jpg,0,0.0,0.0,0,76,76,76,,,,,,,,,,,,,168.01615879999736,0.016158799997356255,None,203.15548090000084,203.15548090000084,203.15548090000084,203.15548090000084,203.15548090000084,203.15548090000084,203.15548090000084,203.15548090000084,203.15548090000084,203.15548090000084,,004,P022,2025_May_13_1726,ConditionRich,2021.2.3,59.948120898065504,
168.75,172.0,41,0.0,Stimuli/Blank.png,0,0.0,0.0,0,77,77,77,,,,,,,,,,,,,168.7646223999982,0.014622399998188484,None,203.88946930000384,203.88946930000384,203.88946930000384,203.88946930000384,203.88946930000384,203.88946930000384,203.88946930000384,203.88946930000384,203.88946930000384,203.88946930000384,,004,P022,2025_May_13_1726,ConditionRich,2021.2.3,59.948120898065504,
172.0,172.75,27,0.75,Stimuli/P016/things_girl_08s.jpg,0,0.0,0.0,0,78,78,78,,,,,,,,,,,,,172.00040720000106,0.00040720000106375664,None,207.1423378000036,207.1423378000036,207.1423378000036,207.1423378000036,207.1423378000036,207.1423378000036,207.1423378000036,207.1423378000036,207.1423378000036,207.1423378000036,,004,P022,2025_May_13_1726,ConditionRich,2021.2.3,59.948120898065504,
172.75,176.0,41,0.0,Stimuli/Blank.png,0,0.0,0.0,0,79,79,79,,,,,,,,,,,,,172.76784600000246,0.01784600000246428,None,207.89304630000697,207.89304630000697,207.89304630000697,207.89304630000697,207.89304630000697,207.89304630000697,207.89304630000697,207.89304630000697,207.89304630000697,207.89304630000697,,004,P022,2025_May_13_1726,ConditionRich,2021.2.3,59.948120898065504,
176.0,176.75,7,0.75,Stimuli/P016/sun_aqdfrmtvewaapuqs.jpg,0,0.0,0.0,0,80,80,80,,,,,,,,,,,,,176.00452919999952,0.00452919999952428,None,211.12919890000194,211.12919890000194,211.12919890000194,211.12919890000194,211.12919890000194,211.12919890000194,211.12919890000194,211.12919890000194,211.12919890000194,211.12919890000194,,004,P022,2025_May_13_1726,ConditionRich,2021.2.3,59.948120898065504,
176.75,180.0,41,0.0,Stimuli/Blank.png,0,0.0,0.0,0,81,81,81,,,,,,,,,,,,,176.7550906000033,0.005090600003313739,None,211.87987540000177,211.87987540000177,211.87987540000177,211.87987540000177,211.87987540000177,211.87987540000177,211.87987540000177,211.87987540000177,211.87987540000177,211.87987540000177,,004,P022,2025_May_13_1726,ConditionRich,2021.2.3,59.948120898065504,
180.0,196.0,0,0.0,Stimuli/Blank.png,1,12.0,12.75,0,82,82,82,,,,,,,,,,,,,180.01020430000062,0.010204300000623334,1,215.14944200000173,215.14944200000173,215.14944200000173,215.14944200000173,215.14944200000173,215.14944200000173,227.12670120000257,227.87733490000392,215.14944200000173,215.14944200000173,12.482093699996767,004,P022,2025_May_13_1726,ConditionRich,2021.2.3,59.948120898065504,
196.0,196.75,31,0.75,Stimuli/P016/things_outlet_08s.jpg,0,0.0,0.0,0,83,83,83,,,,,,,,,,,,,196.02144520000002,0.021445200000016484,None,231.16358520000358,231.16358520000358,231.16358520000358,231.16358520000358,231.16358520000358,231.16358520000358,231.16358520000358,231.16358520000358,231.16358520000358,231.16358520000358,,004,P022,2025_May_13_1726,ConditionRich,2021.2.3,59.948120898065504,
196.75,200.0,41,0.0,Stimuli/Blank.png,0,0.0,0.0,0,84,84,84,,,,,,,,,,,,,196.7749232999995,0.02492329999950016,None,231.91423890000442,231.91423890000442,231.91423890000442,231.91423890000442,231.91423890000442,231.91423890000442,231.91423890000442,231.91423890000442,231.91423890000442,231.91423890000442,,004,P022,2025_May_13_1726,ConditionRich,2021.2.3,59.948120898065504,
200.0,200.75,33,0.75,Stimuli/P016/things_raccoon_08n.jpg,0,0.0,0.0,0,85,85,85,,,,,,,,,,,,,200.0255219000028,0.025521900002786424,None,235.1504189000043,235.1504189000043,235.1504189000043,235.1504189000043,235.1504189000043,235.1504189000043,235.1504189000043,235.1504189000043,235.1504189000043,235.1504189000043,,004,P022,2025_May_13_1726,ConditionRich,2021.2.3,59.948120898065504,
200.75,204.0,41,0.0,Stimuli/Blank.png,0,0.0,0.0,0,86,86,86,,,,,,,,,,,,,200.759756200001,0.009756200000992976,None,235.88440500000434,235.88440500000434,235.88440500000434,235.88440500000434,235.88440500000434,235.88440500000434,235.88440500000434,235.88440500000434,235.88440500000434,235.88440500000434,,004,P022,2025_May_13_1726,ConditionRich,2021.2.3,59.948120898065504,
204.0,204.75,6,0.75,Stimuli/P016/sun_akecfasimgpbqcnt.jpg,0,0.0,0.0,0,87,87,87,,,,,,,,,,,,,204.0140231999976,0.014023199997609481,None,239.1539666000026,239.1539666000026,239.1539666000026,239.1539666000026,239.1539666000026,239.1539666000026,239.1539666000026,239.1539666000026,239.1539666000026,239.1539666000026,,004,P022,2025_May_13_1726,ConditionRich,2021.2.3,59.948120898065504,
204.75,208.0,41,0.0,Stimuli/Blank.png,0,0.0,0.0,0,88,88,88,,,,,,,,,,,,,204.77981379999983,0.029813799999828916,None,239.90462560000014,239.90462560000014,239.90462560000014,239.90462560000014,239.90462560000014,239.90462560000014,239.90462560000014,239.90462560000014,239.90462560000014,239.90462560000014,,004,P022,2025_May_13_1726,ConditionRich,2021.2.3,59.948120898065504,
208.0,208.75,10,0.75,Stimuli/P016/sun_bfojpvrlsrtfyzio.jpg,0,0.0,0.0,0,89,89,89,,,,,,,,,,,,,207.99848210000346,-0.0015178999965428375,None,243.12413540000125,243.12413540000125,243.12413540000125,243.12413540000125,243.12413540000125,243.12413540000125,243.12413540000125,243.12413540000125,243.12413540000125,243.12413540000125,,004,P022,2025_May_13_1726,ConditionRich,2021.2.3,59.948120898065504,
208.75,212.0,41,0.0,Stimuli/Blank.png,0,0.0,0.0,0,90,90,90,,,,,,,,,,,,,208.74983169999905,-0.00016830000095069408,None,243.89153440000518,243.89153440000518,243.89153440000518,243.89153440000518,243.89153440000518,243.89153440000518,243.89153440000518,243.89153440000518,243.89153440000518,243.89153440000518,,004,P022,2025_May_13_1726,ConditionRich,2021.2.3,59.948120898065504,
212.0,212.75,16,0.75,Stimuli/P016/sun_bwhuwxazfqwuqhik.jpg,0,0.0,0.0,0,91,91,91,,,,,,,,,,,,,212.01942750000308,0.019427500003075693,None,247.14436440000281,247.14436440000281,247.14436440000281,247.14436440000281,247.14436440000281,247.14436440000281,247.14436440000281,247.14436440000281,247.14436440000281,247.14436440000281,,004,P022,2025_May_13_1726,ConditionRich,2021.2.3,59.948120898065504,
212.75,216.0,41,0.0,Stimuli/Blank.png,0,0.0,0.0,0,92,92,92,,,,,,,,,,,,,212.75519440000062,0.005194400000618771,None,247.87836050000624,247.87836050000624,247.87836050000624,247.87836050000624,247.87836050000624,247.87836050000624,247.87836050000624,247.87836050000624,247.87836050000624,247.87836050000624,,004,P022,2025_May_13_1726,ConditionRich,2021.2.3,59.948120898065504,
216.0,216.75,21,0.75,Stimuli/P016/things_arch_08s.jpg,0,0.0,0.0,0,93,93,93,,,,,,,,,,,,,216.00640959999873,0.006409599998733029,None,251.13122960000328,251.13122960000328,251.13122960000328,251.13122960000328,251.13122960000328,251.13122960000328,251.13122960000328,251.13122960000328,251.13122960000328,251.13122960000328,,004,P022,2025_May_13_1726,ConditionRich,2021.2.3,59.948120898065504,
216.75,220.0,41,0.0,Stimuli/Blank.png,0,0.0,0.0,0,94,94,94,,,,,,,,,,,,,216.7590379999965,0.009037999996508006,None,251.8985909000039,251.8985909000039,251.8985909000039,251.8985909000039,251.8985909000039,251.8985909000039,251.8985909000039,251.8985909000039,251.8985909000039,251.8985909000039,,004,P022,2025_May_13_1726,ConditionRich,2021.2.3,59.948120898065504,
220.0,220.75,4,0.75,Stimuli/P016/sun_aiwuqxdqzftsfyeg.jpg,0,0.0,0.0,0,95,95,95,,,,,,,,,,,,,220.02888430000166,0.028884300001664087,None,255.1681177000064,255.1681177000064,255.1681177000064,255.1681177000064,255.1681177000064,255.1681177000064,255.1681177000064,255.1681177000064,255.1681177000064,255.1681177000064,,004,P022,2025_May_13_1726,ConditionRich,2021.2.3,59.948120898065504,
220.75,224.0,41,0.0,Stimuli/Blank.png,0,0.0,0.0,0,96,96,96,,,,,,,,,,,,,220.77900889999728,0.029008899997279514,None,255.9188046000054,255.9188046000054,255.9188046000054,255.9188046000054,255.9188046000054,255.9188046000054,255.9188046000054,255.9188046000054,255.9188046000054,255.9188046000054,,004,P022,2025_May_13_1726,ConditionRich,2021.2.3,59.948120898065504,
224.0,224.75,30,0.75,Stimuli/P016/things_ottoman_08s.jpg,0,0.0,0.0,0,97,97,97,,,,,,,,,,,,,224.03024810000352,0.03024810000351863,None,259.1549939000033,259.1549939000033,259.1549939000033,259.1549939000033,259.1549939000033,259.1549939000033,259.1549939000033,259.1549939000033,259.1549939000033,259.1549939000033,,004,P022,2025_May_13_1726,ConditionRich,2021.2.3,59.948120898065504,
224.75,228.0,41,0.0,Stimuli/Blank.png,0,0.0,0.0,0,98,98,98,,,,,,,,,,,,,224.7649225999994,0.014922599999408703,None,259.8889643000002,259.8889643000002,259.8889643000002,259.8889643000002,259.8889643000002,259.8889643000002,259.8889643000002,259.8889643000002,259.8889643000002,259.8889643000002,,004,P022,2025_May_13_1726,ConditionRich,2021.2.3,59.948120898065504,
228.0,228.75,14,0.75,Stimuli/P016/sun_bpvmkbyglkraoxhh.jpg,0,0.0,0.0,0,99,99,99,,,,,,,,,,,,,228.00027899999986,0.0002789999998640269,None,263.1251590000029,263.1251590000029,263.1251590000029,263.1251590000029,263.1251590000029,263.1251590000029,263.1251590000029,263.1251590000029,263.1251590000029,263.1251590000029,,004,P022,2025_May_13_1726,ConditionRich,2021.2.3,59.948120898065504,
228.75,232.0,41,0.0,Stimuli/Blank.png,0,0.0,0.0,0,100,100,100,,,,,,,,,,,,,228.75041770000098,0.0004177000009804033,None,263.8758258000016,263.8758258000016,263.8758258000016,263.8758258000016,263.8758258000016,263.8758258000016,263.8758258000016,263.8758258000016,263.8758258000016,263.8758258000016,,004,P022,2025_May_13_1726,ConditionRich,2021.2.3,59.948120898065504,
232.0,232.75,35,0.75,Stimuli/P016/things_squid_08s.jpg,0,0.0,0.0,0,101,101,101,,,,,,,,,,,,,232.00432210000145,0.004322100001445506,None,267.1453727000044,267.1453727000044,267.1453727000044,267.1453727000044,267.1453727000044,267.1453727000044,267.1453727000044,267.1453727000044,267.1453727000044,267.1453727000044,,004,P022,2025_May_13_1726,ConditionRich,2021.2.3,59.948120898065504,
232.75,236.0,41,0.0,Stimuli/Blank.png,1,2.25,3.0,0,102,102,102,,,,,,,,,,,,,232.77085899999656,0.02085899999656249,1,267.89604099999997,267.89604099999997,267.89604099999997,267.89604099999997,267.89604099999997,267.89604099999997,270.1313504999998,270.8820171000043,267.89604099999997,267.89604099999997,2.718292500001553,004,P022,2025_May_13_1726,ConditionRich,2021.2.3,59.948120898065504,
236.0,236.75,1,0.75,Stimuli/P016/sun_aacpzgqrortyhyss.jpg,0,0.0,0.0,0,103,103,103,,,,,,,,,,,,,236.01028309999674,0.01028309999674093,None,271.14897120000387,271.14897120000387,271.14897120000387,271.14897120000387,271.14897120000387,271.14897120000387,271.14897120000387,271.14897120000387,271.14897120000387,271.14897120000387,,004,P022,2025_May_13_1726,ConditionRich,2021.2.3,59.948120898065504,
236.75,240.0,41,0.0,Stimuli/Blank.png,0,0.0,0.0,0,104,104,104,,,,,,,,,,,,,236.77484600000025,0.02484600000025239,None,271.89957510000386,271.89957510000386,271.89957510000386,271.89957510000386,271.89957510000386,271.89957510000386,271.89957510000386,271.89957510000386,271.89957510000386,271.89957510000386,,004,P022,2025_May_13_1726,ConditionRich,2021.2.3,59.948120898065504,
240.0,240.75,26,0.75,Stimuli/P016/things_face_08s.jpg,0,0.0,0.0,0,105,105,105,,,,,,,,,,,,,240.01031420000072,0.01031420000072103,None,275.13577730000543,275.13577730000543,275.13577730000543,275.13577730000543,275.13577730000543,275.13577730000543,275.13577730000543,275.13577730000543,275.13577730000543,275.13577730000543,,004,P022,2025_May_13_1726,ConditionRich,2021.2.3,59.948120898065504,
240.75,244.0,41,0.0,Stimuli/Blank.png,0,0.0,0.0,0,106,106,106,,,,,,,,,,,,,240.7608231999984,0.010823199998412747,None,275.8864459000033,275.8864459000033,275.8864459000033,275.8864459000033,275.8864459000033,275.8864459000033,275.8864459000033,275.8864459000033,275.8864459000033,275.8864459000033,,004,P022,2025_May_13_1726,ConditionRich,2021.2.3,59.948120898065504,
244.0,244.75,15,0.75,Stimuli/P016/sun_bvfcijehgdsndfbg.jpg,0,0.0,0.0,0,107,107,107,,,,,,,,,,,,,244.0147794000004,0.014779400000406895,None,279.1393218000012,279.1393218000012,279.1393218000012,279.1393218000012,279.1393218000012,279.1393218000012,279.1393218000012,279.1393218000012,279.1393218000012,279.1393218000012,,004,P022,2025_May_13_1726,ConditionRich,2021.2.3,59.948120898065504,
244.75,248.0,41,0.0,Stimuli/Blank.png,1,0.25,1.0,0,108,108,108,,,,,,,,,,,,,244.76474159999634,0.014741599996341392,1,279.88999070000136,279.88999070000136,279.88999070000136,279.88999070000136,279.88999070000136,279.88999070000136,280.1235083000065,280.8741844000033,279.88999070000136,279.88999070000136,0.6396997000047122,004,P022,2025_May_13_1726,ConditionRich,2021.2.3,59.948120898065504,
248.0,248.75,19,0.75,Stimuli/P016/sun_bzhwvgrzvttqoexa.jpg,1,0.0,0.75,0,109,109,109,,,,,,,,,,,,,248.00084719999722,0.0008471999972243793,1,283.12624170000345,283.12624170000345,283.12624170000345,283.12624170000345,283.12624170000345,283.12624170000345,283.12624170000345,283.860190600004,283.12624170000345,283.12624170000345,0.5611636000030558,004,P022,2025_May_13_1726,ConditionRich,2021.2.3,59.948120898065504,
248.75,252.0,41,0.0,Stimuli/Blank.png,0,0.0,0.0,0,110,110,110,,,,,,,,,,,,,248.75206669999898,0.0020666999989771284,None,283.8768374000065,283.8768374000065,283.8768374000065,283.8768374000065,283.8768374000065,283.8768374000065,283.8768374000065,283.8768374000065,283.8768374000065,283.8768374000065,,004,P022,2025_May_13_1726,ConditionRich,2021.2.3,59.948120898065504,
252.0,252.75,38,0.75,Stimuli/P016/things_trumpet_08s.jpg,0,0.0,0.0,0,111,111,111,,,,,,,,,,,,,252.0049433000022,0.004943300002196338,None,287.1297165000069,287.1297165000069,287.1297165000069,287.1297165000069,287.1297165000069,287.1297165000069,287.1297165000069,287.1297165000069,287.1297165000069,287.1297165000069,,004,P022,2025_May_13_1726,ConditionRich,2021.2.3,59.948120898065504,
252.75,256.0,41,0.0,Stimuli/Blank.png,0,0.0,0.0,0,112,112,112,,,,,,,,,,,,,252.75485859999753,0.00485859999753302,None,287.8803753000029,287.8803753000029,287.8803753000029,287.8803753000029,287.8803753000029,287.8803753000029,287.8803753000029,287.8803753000029,287.8803753000029,287.8803753000029,,004,P022,2025_May_13_1726,ConditionRich,2021.2.3,59.948120898065504,
256.0,256.75,17,0.75,Stimuli/P016/sun_bxhbltvqnpaciuzt.jpg,0,0.0,0.0,0,113,113,113,,,,,,,,,,,,,256.0084158000027,0.008415800002694596,None,291.1332520000069,291.1332520000069,291.1332520000069,291.1332520000069,291.1332520000069,291.1332520000069,291.1332520000069,291.1332520000069,291.1332520000069,291.1332520000069,,004,P022,2025_May_13_1726,ConditionRich,2021.2.3,59.948120898065504,
256.75,260.0,41,0.0,Stimuli/Blank.png,1,2.25,3.0,0,114,114,114,,,,,,,,,,,,,256.7593465000027,0.009346500002720859,1,291.8839062000043,291.8839062000043,291.8839062000043,291.8839062000043,291.8839062000043,291.8839062000043,294.1192163000014,294.86992080000346,291.8839062000043,291.8839062000043,2.7244598000033875,004,P022,2025_May_13_1726,ConditionRich,2021.2.3,59.948120898065504,
260.0,260.75,29,0.75,Stimuli/P016/things_mouse1_08s.jpg,0,0.0,0.0,0,115,115,115,,,,,,,,,,,,,260.01123070000176,0.011230700001760852,None,295.15347830000246,295.15347830000246,295.15347830000246,295.15347830000246,295.15347830000246,295.15347830000246,295.15347830000246,295.15347830000246,295.15347830000246,295.15347830000246,,004,P022,2025_May_13_1726,ConditionRich,2021.2.3,59.948120898065504,
260.75,264.0,41,0.0,Stimuli/Blank.png,0,0.0,0.0,0,116,116,116,,,,,,,,,,,,,260.7795738999994,0.029573899999377318,None,295.90413600000466,295.90413600000466,295.90413600000466,295.90413600000466,295.90413600000466,295.90413600000466,295.90413600000466,295.90413600000466,295.90413600000466,295.90413600000466,,004,P022,2025_May_13_1726,ConditionRich,2021.2.3,59.948120898065504,
264.0,264.75,23,0.75,Stimuli/P016/things_boy_08s.jpg,0,0.0,0.0,0,117,117,117,,,,,,,,,,,,,263.9993764000028,-0.0006235999971977435,None,299.14032320000115,299.14032320000115,299.14032320000115,299.14032320000115,299.14032320000115,299.14032320000115,299.14032320000115,299.14032320000115,299.14032320000115,299.14032320000115,,004,P022,2025_May_13_1726,ConditionRich,2021.2.3,59.948120898065504,
264.75,268.0,41,0.0,Stimuli/Blank.png,1,0.25,1.0,0,118,118,118,,,,,,,,,,,,,264.7656330000027,0.015633000002708286,1,299.8910013000059,299.8910013000059,299.8910013000059,299.8910013000059,299.8910013000059,299.8910013000059,300.1245207000029,300.8752447000006,299.8910013000059,299.8910013000059,0.6545067000042764,004,P022,2025_May_13_1726,ConditionRich,2021.2.3,59.948120898065504,
268.0,268.75,37,0.75,Stimuli/P016/things_swizzle_stick_08s.jpg,0,0.0,0.0,0,119,119,119,,,,,,,,,,,,,268.0044162999984,0.004416299998410977,None,303.14386220000597,303.14386220000597,303.14386220000597,303.14386220000597,303.14386220000597,303.14386220000597,303.14386220000597,303.14386220000597,303.14386220000597,303.14386220000597,,004,P022,2025_May_13_1726,ConditionRich,2021.2.3,59.948120898065504,
268.75,272.0,41,0.0,Stimuli/Blank.png,0,0.0,0.0,0,120,120,120,,,,,,,,,,,,,268.7696145000009,0.01961450000089826,None,303.8945403000034,303.8945403000034,303.8945403000034,303.8945403000034,303.8945403000034,303.8945403000034,303.8945403000034,303.8945403000034,303.8945403000034,303.8945403000034,,004,P022,2025_May_13_1726,ConditionRich,2021.2.3,59.948120898065504,
272.0,272.75,2,0.75,Stimuli/P016/sun_agzfkftryitnqpxc.jpg,0,0.0,0.0,0,121,121,121,,,,,,,,,,,,,272.0060738000029,0.006073800002923235,None,307.1474110000054,307.1474110000054,307.1474110000054,307.1474110000054,307.1474110000054,307.1474110000054,307.1474110000054,307.1474110000054,307.1474110000054,307.1474110000054,,004,P022,2025_May_13_1726,ConditionRich,2021.2.3,59.948120898065504,
272.75,276.0,41,0.0,Stimuli/Blank.png,0,0.0,0.0,0,122,122,122,,,,,,,,,,,,,272.77341539999907,0.02341539999906672,None,307.89807270000165,307.89807270000165,307.89807270000165,307.89807270000165,307.89807270000165,307.89807270000165,307.89807270000165,307.89807270000165,307.89807270000165,307.89807270000165,,004,P022,2025_May_13_1726,ConditionRich,2021.2.3,59.948120898065504,
276.0,292.0,0,0.0,Stimuli/Blank.png,1,5.0,5.75,0,123,123,123,,,,,,,,,,,,,276.009221100001,0.009221100001013838,1,311.13426010000694,311.13426010000694,311.13426010000694,311.13426010000694,311.13426010000694,311.13426010000694,316.1221977000023,316.87268430000404,311.13426010000694,311.13426010000694,5.447057299999869,004,P022,2025_May_13_1726,ConditionRich,2021.2.3,59.948120898065504,
292.0,292.75,3,0.75,Stimuli/P016/sun_aiogwnavezqxkzfg.jpg,0,0.0,0.0,0,124,124,124,,,,,,,,,,,,,292.0072747000013,0.007274700001289602,None,327.1317444000015,327.1317444000015,327.1317444000015,327.1317444000015,327.1317444000015,327.1317444000015,327.1317444000015,327.1317444000015,327.1317444000015,327.1317444000015,,004,P022,2025_May_13_1726,ConditionRich,2021.2.3,59.948120898065504,
292.75,296.0,41,0.0,Stimuli/Blank.png,0,0.0,0.0,0,125,125,125,,,,,,,,,,,,,292.7596947999991,0.00969479999912437,None,327.8990769000011,327.8990769000011,327.8990769000011,327.8990769000011,327.8990769000011,327.8990769000011,327.8990769000011,327.8990769000011,327.8990769000011,327.8990769000011,,004,P022,2025_May_13_1726,ConditionRich,2021.2.3,59.948120898065504,
296.0,296.75,34,0.75,Stimuli/P016/things_shower_cap_08s.jpg,0,0.0,0.0,0,126,126,126,,,,,,,,,,,,,296.02912990000186,0.029129900001862552,None,331.1686531000014,331.1686531000014,331.1686531000014,331.1686531000014,331.1686531000014,331.1686531000014,331.1686531000014,331.1686531000014,331.1686531000014,331.1686531000014,,004,P022,2025_May_13_1726,ConditionRich,2021.2.3,59.948120898065504,
296.75,300.0,41,0.0,Stimuli/Blank.png,1,0.25,1.0,0,127,127,127,,,,,,,,,,,,,296.7792077999984,0.02920779999840306,1,331.91930400000274,331.91930400000274,331.91930400000274,331.91930400000274,331.91930400000274,331.91930400000274,332.152872000006,332.90350390000094,331.91930400000274,331.91930400000274,0.6972798999995575,004,P022,2025_May_13_1726,ConditionRich,2021.2.3,59.948120898065504,
300.0,300.75,24,0.75,Stimuli/P016/things_bunkbed_08s.jpg,0,0.0,0.0,0,128,128,128,,,,,,,,,,,,,300.03047289999813,0.030472899998130742,None,335.1554866000006,335.1554866000006,335.1554866000006,335.1554866000006,335.1554866000006,335.1554866000006,335.1554866000006,335.1554866000006,335.1554866000006,335.1554866000006,,004,P022,2025_May_13_1726,ConditionRich,2021.2.3,59.948120898065504,
300.75,304.0,41,0.0,Stimuli/Blank.png,0,0.0,0.0,0,129,129,129,,,,,,,,,,,,,300.76448430000164,0.014484300001640804,None,335.8894846000039,335.8894846000039,335.8894846000039,335.8894846000039,335.8894846000039,335.8894846000039,335.8894846000039,335.8894846000039,335.8894846000039,335.8894846000039,,004,P022,2025_May_13_1726,ConditionRich,2021.2.3,59.948120898065504,
304.0,304.75,12,0.75,Stimuli/P016/sun_boffixsnbbloarty.jpg,1,0.0,0.75,0,130,130,130,,,,,,,,,,,,,304.0001979000008,0.0001979000007850118,1,339.1256702000028,339.1256702000028,339.1256702000028,339.1256702000028,339.1256702000028,339.1256702000028,339.1256702000028,339.85965340000257,339.1256702000028,339.1256702000028,0.654797299997881,004,P022,2025_May_13_1726,ConditionRich,2021.2.3,59.948120898065504,
304.75,308.0,41,0.0,Stimuli/Blank.png,0,0.0,0.0,0,131,131,131,,,,,,,,,,,,,304.7513368,0.0013367999999900348,None,339.87633610000194,339.87633610000194,339.87633610000194,339.87633610000194,339.87633610000194,339.87633610000194,339.87633610000194,339.87633610000194,339.87633610000194,339.87633610000194,,004,P022,2025_May_13_1726,ConditionRich,2021.2.3,59.948120898065504,
308.0,308.75,28,0.75,Stimuli/P016/things_latte_08s.jpg,0,0.0,0.0,0,132,132,132,,,,,,,,,,,,,308.0058831999995,0.005883199999516364,None,343.14591530000325,343.14591530000325,343.14591530000325,343.14591530000325,343.14591530000325,343.14591530000325,343.14591530000325,343.14591530000325,343.14591530000325,343.14591530000325,,004,P022,2025_May_13_1726,ConditionRich,2021.2.3,59.948120898065504,
308.75,312.0,41,0.0,Stimuli/Blank.png,0,0.0,0.0,0,133,133,133,,,,,,,,,,,,,308.77200979999907,0.02200979999906849,None,343.89654740000697,343.89654740000697,343.89654740000697,343.89654740000697,343.89654740000697,343.89654740000697,343.89654740000697,343.89654740000697,343.89654740000697,343.89654740000697,,004,P022,2025_May_13_1726,ConditionRich,2021.2.3,59.948120898065504,
312.0,312.75,36,0.75,Stimuli/P016/things_streetlight_08s.jpg,0,0.0,0.0,0,134,134,134,,,,,,,,,,,,,312.0101671000011,0.010167100001126528,None,347.1494237000006,347.1494237000006,347.1494237000006,347.1494237000006,347.1494237000006,347.1494237000006,347.1494237000006,347.1494237000006,347.1494237000006,347.1494237000006,,004,P022,2025_May_13_1726,ConditionRich,2021.2.3,59.948120898065504,
312.75,316.0,41,0.0,Stimuli/Blank.png,0,0.0,0.0,0,135,135,135,,,,,,,,,,,,,312.77537660000235,0.025376600002346095,None,347.90008930000477,347.90008930000477,347.90008930000477,347.90008930000477,347.90008930000477,347.90008930000477,347.90008930000477,347.90008930000477,347.90008930000477,347.90008930000477,,004,P022,2025_May_13_1726,ConditionRich,2021.2.3,59.948120898065504,
316.0,316.75,9,0.75,Stimuli/P016/sun_bbdgftzhpkaklkll.jpg,0,0.0,0.0,0,136,136,136,,,,,,,,,,,,,316.01164840000274,0.011648400002741255,None,351.1529476000069,351.1529476000069,351.1529476000069,351.1529476000069,351.1529476000069,351.1529476000069,351.1529476000069,351.1529476000069,351.1529476000069,351.1529476000069,,004,P022,2025_May_13_1726,ConditionRich,2021.2.3,59.948120898065504,
316.75,320.0,41,0.0,Stimuli/Blank.png,0,0.0,0.0,0,137,137,137,,,,,,,,,,,,,316.77829519999796,0.028295199997955933,None,351.9036286000046,351.9036286000046,351.9036286000046,351.9036286000046,351.9036286000046,351.9036286000046,351.9036286000046,351.9036286000046,351.9036286000046,351.9036286000046,,004,P022,2025_May_13_1726,ConditionRich,2021.2.3,59.948120898065504,
320.0,320.75,40,0.75,Stimuli/P016/things_woman_08s.jpg,0,0.0,0.0,0,138,138,138,,,,,,,,,,,,,320.0149386999983,0.014938699998310767,None,355.1398279000059,355.1398279000059,355.1398279000059,355.1398279000059,355.1398279000059,355.1398279000059,355.1398279000059,355.1398279000059,355.1398279000059,355.1398279000059,,004,P022,2025_May_13_1726,ConditionRich,2021.2.3,59.948120898065504,
320.75,324.0,41,0.0,Stimuli/Blank.png,1,1.25,2.0,0,139,139,139,,,,,,,,,,,,,320.7648912000004,0.014891200000420213,1,355.8904870000042,355.8904870000042,355.8904870000042,355.8904870000042,355.8904870000042,355.8904870000042,357.12490490000346,357.87561480000295,355.8904870000042,355.8904870000042,1.6898838999986765,004,P022,2025_May_13_1726,ConditionRich,2021.2.3,59.948120898065504,
324.0,324.75,27,0.75,Stimuli/P016/things_girl_08s.jpg,0,0.0,0.0,0,140,140,140,,,,,,,,,,,,,324.0012162999992,0.0012162999992142431,None,359.1266878000024,359.1266878000024,359.1266878000024,359.1266878000024,359.1266878000024,359.1266878000024,359.1266878000024,359.1266878000024,359.1266878000024,359.1266878000024,,004,P022,2025_May_13_1726,ConditionRich,2021.2.3,59.948120898065504,
324.75,328.0,41,0.0,Stimuli/Blank.png,0,0.0,0.0,0,141,141,141,,,,,,,,,,,,,324.7540360999992,0.004036099999211729,None,359.89404130000185,359.89404130000185,359.89404130000185,359.89404130000185,359.89404130000185,359.89404130000185,359.89404130000185,359.89404130000185,359.89404130000185,359.89404130000185,,004,P022,2025_May_13_1726,ConditionRich,2021.2.3,59.948120898065504,
328.0,328.75,39,0.75,Stimuli/P016/things_window_08s.jpg,0,0.0,0.0,0,142,142,142,,,,,,,,,,,,,328.0214281000008,0.021428100000775885,None,363.146900000007,363.146900000007,363.146900000007,363.146900000007,363.146900000007,363.146900000007,363.146900000007,363.146900000007,363.146900000007,363.146900000007,,004,P022,2025_May_13_1726,ConditionRich,2021.2.3,59.948120898065504,
328.75,332.0,41,0.0,Stimuli/Blank.png,0,0.0,0.0,0,143,143,143,,,,,,,,,,,,,328.7559618000014,0.005961800001387019,None,363.8808907000057,363.8808907000057,363.8808907000057,363.8808907000057,363.8808907000057,363.8808907000057,363.8808907000057,363.8808907000057,363.8808907000057,363.8808907000057,,004,P022,2025_May_13_1726,ConditionRich,2021.2.3,59.948120898065504,
332.0,332.75,11,0.75,Stimuli/P016/sun_bnwmcjuinqbdsbho.jpg,0,0.0,0.0,0,144,144,144,,,,,,,,,,,,,332.00875890000316,0.008758900003158487,None,367.1337652000002,367.1337652000002,367.1337652000002,367.1337652000002,367.1337652000002,367.1337652000002,367.1337652000002,367.1337652000002,367.1337652000002,367.1337652000002,,004,P022,2025_May_13_1726,ConditionRich,2021.2.3,59.948120898065504,
332.75,336.0,41,0.0,Stimuli/Blank.png,0,0.0,0.0,0,145,145,145,,,,,,,,,,,,,332.75944660000096,0.009446600000956096,None,367.8844332000008,367.8844332000008,367.8844332000008,367.8844332000008,367.8844332000008,367.8844332000008,367.8844332000008,367.8844332000008,367.8844332000008,367.8844332000008,,004,P022,2025_May_13_1726,ConditionRich,2021.2.3,59.948120898065504,
336.0,336.75,32,0.75,Stimuli/P016/things_pheasant_08s.jpg,0,0.0,0.0,0,146,146,146,,,,,,,,,,,,,336.0140558999992,0.014055899999220856,None,371.15398510000523,371.15398510000523,371.15398510000523,371.15398510000523,371.15398510000523,371.15398510000523,371.15398510000523,371.15398510000523,371.15398510000523,371.15398510000523,,004,P022,2025_May_13_1726,ConditionRich,2021.2.3,59.948120898065504,
336.75,340.0,41,0.0,Stimuli/Blank.png,0,0.0,0.0,0,147,147,147,,,,,,,,,,,,,336.7791472000026,0.02914720000262605,None,371.9046448000008,371.9046448000008,371.9046448000008,371.9046448000008,371.9046448000008,371.9046448000008,371.9046448000008,371.9046448000008,371.9046448000008,371.9046448000008,,004,P022,2025_May_13_1726,ConditionRich,2021.2.3,59.948120898065504,
340.0,340.75,22,0.75,Stimuli/P016/things_baby_08s.jpg,1,0.0,0.75,0,148,148,148,,,,,,,,,,,,,340.0161354000011,0.01613540000107605,1,375.1575348000042,375.1575348000042,375.1575348000042,375.1575348000042,375.1575348000042,375.1575348000042,375.1575348000042,375.8748526000054,375.1575348000042,375.1575348000042,0.47588149999501184,004,P022,2025_May_13_1726,ConditionRich,2021.2.3,59.948120898065504,
340.75,344.0,41,0.0,Stimuli/Blank.png,0,0.0,0.0,0,149,149,149,,,,,,,,,,,,,340.76680979999946,0.016809799999464303,None,375.8915058000057,375.8915058000057,375.8915058000057,375.8915058000057,375.8915058000057,375.8915058000057,375.8915058000057,375.8915058000057,375.8915058000057,375.8915058000057,,004,P022,2025_May_13_1726,ConditionRich,2021.2.3,59.948120898065504,
344.0,344.75,18,0.75,Stimuli/P016/sun_byavixgfuhzioilz.jpg,0,0.0,0.0,0,150,150,150,,,,,,,,,,,,,344.00426159999915,0.004261599999153987,None,379.1443816000028,379.1443816000028,379.1443816000028,379.1443816000028,379.1443816000028,379.1443816000028,379.1443816000028,379.1443816000028,379.1443816000028,379.1443816000028,,004,P022,2025_May_13_1726,ConditionRich,2021.2.3,59.948120898065504,
344.75,348.0,41,0.0,Stimuli/Blank.png,0,0.0,0.0,0,151,151,151,,,,,,,,,,,,,344.77059810000355,0.020598100003553554,None,379.8951066000009,379.8951066000009,379.8951066000009,379.8951066000009,379.8951066000009,379.8951066000009,379.8951066000009,379.8951066000009,379.8951066000009,379.8951066000009,,004,P022,2025_May_13_1726,ConditionRich,2021.2.3,59.948120898065504,
348.0,348.75,7,0.75,Stimuli/P016/sun_aqdfrmtvewaapuqs.jpg,0,0.0,0.0,0,152,152,152,,,,,,,,,,,,,348.0060020000019,0.006002000001899432,None,383.1312926000028,383.1312926000028,383.1312926000028,383.1312926000028,383.1312926000028,383.1312926000028,383.1312926000028,383.1312926000028,383.1312926000028,383.1312926000028,,004,P022,2025_May_13_1726,ConditionRich,2021.2.3,59.948120898065504,
348.75,352.0,41,0.0,Stimuli/Blank.png,0,0.0,0.0,0,153,153,153,,,,,,,,,,,,,348.75635299999703,0.006352999997034203,None,383.8820268000054,383.8820268000054,383.8820268000054,383.8820268000054,383.8820268000054,383.8820268000054,383.8820268000054,383.8820268000054,383.8820268000054,383.8820268000054,,004,P022,2025_May_13_1726,ConditionRich,2021.2.3,59.948120898065504,
352.0,352.75,5,0.75,Stimuli/P016/sun_ajgmxbrxdpmsaext.jpg,0,0.0,0.0,0,154,154,154,,,,,,,,,,,,,352.01010040000256,0.010100400002556853,None,387.13477930000226,387.13477930000226,387.13477930000226,387.13477930000226,387.13477930000226,387.13477930000226,387.13477930000226,387.13477930000226,387.13477930000226,387.13477930000226,,004,P022,2025_May_13_1726,ConditionRich,2021.2.3,59.948120898065504,
352.75,356.0,41,0.0,Stimuli/Blank.png,0,0.0,0.0,0,155,155,155,,,,,,,,,,,,,352.76008719999663,0.01008719999663299,None,387.88545810000505,387.88545810000505,387.88545810000505,387.88545810000505,387.88545810000505,387.88545810000505,387.88545810000505,387.88545810000505,387.88545810000505,387.88545810000505,,004,P022,2025_May_13_1726,ConditionRich,2021.2.3,59.948120898065504,
356.0,356.75,20,0.75,Stimuli/P016/sun_bzmxulijbnmshodq.jpg,0,0.0,0.0,0,156,156,156,,,,,,,,,,,,,356.01353879999806,0.013538799998059403,None,391.1383155000003,391.1383155000003,391.1383155000003,391.1383155000003,391.1383155000003,391.1383155000003,391.1383155000003,391.1383155000003,391.1383155000003,391.1383155000003,,004,P022,2025_May_13_1726,ConditionRich,2021.2.3,59.948120898065504,
356.75,360.0,41,0.0,Stimuli/Blank.png,0,0.0,0.0,0,157,157,157,,,,,,,,,,,,,356.76483810000354,0.014838100003544241,None,391.8890351000009,391.8890351000009,391.8890351000009,391.8890351000009,391.8890351000009,391.8890351000009,391.8890351000009,391.8890351000009,391.8890351000009,391.8890351000009,,004,P022,2025_May_13_1726,ConditionRich,2021.2.3,59.948120898065504,
360.0,360.75,13,0.75,Stimuli/P016/sun_bphvjnowixlryxot.jpg,0,0.0,0.0,0,158,158,158,,,,,,,,,,,,,360.0000519000023,5.190000229049474e-05,None,395.12517610000214,395.12517610000214,395.12517610000214,395.12517610000214,395.12517610000214,395.12517610000214,395.12517610000214,395.12517610000214,395.12517610000214,395.12517610000214,,004,P022,2025_May_13_1726,ConditionRich,2021.2.3,59.948120898065504,
360.75,364.0,41,0.0,Stimuli/Blank.png,0,0.0,0.0,0,159,159,159,,,,,,,,,,,,,360.7510473000002,0.0010473000002093613,None,395.87581870000577,395.87581870000577,395.87581870000577,395.87581870000577,395.87581870000577,395.87581870000577,395.87581870000577,395.87581870000577,395.87581870000577,395.87581870000577,,004,P022,2025_May_13_1726,ConditionRich,2021.2.3,59.948120898065504,
364.0,364.75,25,0.75,Stimuli/P016/things_deer_08s.jpg,0,0.0,0.0,0,160,160,160,,,,,,,,,,,,,364.0045354000031,0.004535400003078394,None,399.1453920000058,399.1453920000058,399.1453920000058,399.1453920000058,399.1453920000058,399.1453920000058,399.1453920000058,399.1453920000058,399.1453920000058,399.1453920000058,,004,P022,2025_May_13_1726,ConditionRich,2021.2.3,59.948120898065504,
364.75,368.0,41,0.0,Stimuli/Blank.png,0,0.0,0.0,0,161,161,161,,,,,,,,,,,,,364.77103029999853,0.02103029999852879,None,399.89607040000556,399.89607040000556,399.89607040000556,399.89607040000556,399.89607040000556,399.89607040000556,399.89607040000556,399.89607040000556,399.89607040000556,399.89607040000556,,004,P022,2025_May_13_1726,ConditionRich,2021.2.3,59.948120898065504,
368.0,368.75,8,0.75,Stimuli/P016/sun_arldxotvfucvuudk.jpg,1,0.0,0.75,0,162,162,162,,,,,,,,,,,,,368.00902450000285,0.00902450000285171,1,403.14893770000344,403.14893770000344,403.14893770000344,403.14893770000344,403.14893770000344,403.14893770000344,403.14893770000344,403.8829249000046,403.14893770000344,403.14893770000344,0.5187989999976708,004,P022,2025_May_13_1726,ConditionRich,2021.2.3,59.948120898065504,
368.75,372.0,41,0.0,Stimuli/Blank.png,0,0.0,0.0,0,163,163,163,,,,,,,,,,,,,368.7746180000031,0.02461800000310177,None,403.8996000000043,403.8996000000043,403.8996000000043,403.8996000000043,403.8996000000043,403.8996000000043,403.8996000000043,403.8996000000043,403.8996000000043,403.8996000000043,,004,P022,2025_May_13_1726,ConditionRich,2021.2.3,59.948120898065504,
372.0,388.0,0,0.0,Stimuli/Blank.png,1,2.0,2.75,0,164,164,164,,,,,,,,,,,,,372.01110950000293,0.011109500002930872,1,407.13580470000306,407.13580470000306,407.13580470000306,407.13580470000306,407.13580470000306,407.13580470000306,409.1209342000002,409.8722784000056,407.13580470000306,407.13580470000306,2.483750200000941,004,P022,2025_May_13_1726,ConditionRich,2021.2.3,59.948120898065504,
