eventStartTime,eventEndTime,eventCond,imSize,imFile,responseEvent,fixRespStart,fixRespEnd,Events.thisRepN,Events.thisTrialN,Events.thisN,Events.thisIndex,Instructions.started,Instructions.stopped,participantReadyResponse.keys,participantReadyResponse.rt,participantReadyResponse.started,participantReadyResponse.stopped,startWaitforTrigger,triggerResponse.keys,triggerResponse.rt,triggerResponse.started,triggerResponse.stopped,globalTimer,actualStartTime,startTimingDiff,participantResponse.keys,participantResponse.rt,participantResponse.started,participantResponse.stopped,image.started,image.stopped,fixationOutside.started,fixationOutside.stopped,fixationResponse.started,fixationResponse.stopped,fixationInside.started,fixationInside.stopped,session,participant,date,expName,psychopyVersion,frameRate,
,,,,,,,,,,,,10.085966200000257,None,1,6.725485900002241,10.085966200000257,None,,,,,,,,,,,,,,,,,,,,,002,P022,2025_May_13_1705,ConditionRich,2021.2.3,59.942048028061,
,,,,,,,,,,,,,,,,,,16.824310800002422,5,14.152560399998038,16.836806400002388,None,,,,,,,,,,,,,,,,002,P022,2025_May_13_1705,ConditionRich,2021.2.3,59.942048028061,
0.0,4.0,0,0.0,Stimuli/Blank.png,0,0,0.0,0,0,0,0,,,,,,,,,,,,31.003067799996643,0.04738740000175312,0.04738740000175312,1,0.5713754999960656,31.06601860000228,None,31.06601860000228,None,31.06601860000228,None,31.06601860000228,31.06601860000228,31.06601860000228,None,002,P022,2025_May_13_1705,ConditionRich,2021.2.3,59.942048028061,
4.0,7.75,34,0.75,Stimuli/P016/things_shower_cap_08s.jpg,0,0,0.0,0,1,1,1,,,,,,,,,,,,,4.004331000003731,0.004331000003730878,None,,35.036487799996394,35.036487799996394,35.036487799996394,35.036487799996394,35.036487799996394,35.036487799996394,35.036487799996394,35.036487799996394,35.036487799996394,35.036487799996394,002,P022,2025_May_13_1705,ConditionRich,2021.2.3,59.942048028061,
7.75,8.0,41,0.0,Stimuli/Blank.png,0,0,0.0,0,2,2,2,,,,,,,,,,,,,7.7722293000042555,0.022229300004255492,None,,38.78981460000068,38.78981460000068,38.78981460000068,38.78981460000068,38.78981460000068,38.78981460000068,38.78981460000068,38.78981460000068,38.78981460000068,38.78981460000068,002,P022,2025_May_13_1705,ConditionRich,2021.2.3,59.942048028061,
8.0,11.75,16,0.75,Stimuli/P016/sun_bwhuwxazfqwuqhik.jpg,0,0,0.0,0,3,3,3,,,,,,,,,,,,,8.00531640000554,0.005316400005540345,None,,39.03974719999678,39.03974719999678,39.03974719999678,39.03974719999678,39.03974719999678,39.03974719999678,39.03974719999678,39.03974719999678,39.03974719999678,39.03974719999678,002,P022,2025_May_13_1705,ConditionRich,2021.2.3,59.942048028061,
11.75,12.0,41,0.0,Stimuli/Blank.png,0,0,0.0,0,4,4,4,,,,,,,,,,,,,11.776109700003872,0.026109700003871694,None,,42.793066599995655,42.793066599995655,42.793066599995655,42.793066599995655,42.793066599995655,42.793066599995655,42.793066599995655,42.793066599995655,42.793066599995655,42.793066599995655,002,P022,2025_May_13_1705,ConditionRich,2021.2.3,59.942048028061,
12.0,15.75,7,0.75,Stimuli/P016/sun_aqdfrmtvewaapuqs.jpg,0,0,0.0,0,5,5,5,,,,,,,,,,,,,12.009950300001947,0.009950300001946744,None,,43.02661149999767,43.02661149999767,43.02661149999767,43.02661149999767,43.02661149999767,43.02661149999767,43.02661149999767,43.02661149999767,43.02661149999767,43.02661149999767,002,P022,2025_May_13_1705,ConditionRich,2021.2.3,59.942048028061,
15.75,16.0,41,0.0,Stimuli/Blank.png,0,0,0.0,0,6,6,6,,,,,,,,,,,,,15.762891900005343,0.012891900005342904,None,,46.77992770000128,46.77992770000128,46.77992770000128,46.77992770000128,46.77992770000128,46.77992770000128,46.77992770000128,46.77992770000128,46.77992770000128,46.77992770000128,002,P022,2025_May_13_1705,ConditionRich,2021.2.3,59.942048028061,
16.0,19.75,10,0.75,Stimuli/P016/sun_bfojpvrlsrtfyzio.jpg,0,0,0.0,0,7,7,7,,,,,,,,,,,,,16.013181700000132,0.013181700000131968,None,,47.03013159999682,47.03013159999682,47.03013159999682,47.03013159999682,47.03013159999682,47.03013159999682,47.03013159999682,47.03013159999682,47.03013159999682,47.03013159999682,002,P022,2025_May_13_1705,ConditionRich,2021.2.3,59.942048028061,
19.75,20.0,41,0.0,Stimuli/Blank.png,0,0,0.0,0,8,8,8,,,,,,,,,,,,,19.749738100006653,-0.0002618999933474697,None,,50.76678140000149,50.76678140000149,50.76678140000149,50.76678140000149,50.76678140000149,50.76678140000149,50.76678140000149,50.76678140000149,50.76678140000149,50.76678140000149,002,P022,2025_May_13_1705,ConditionRich,2021.2.3,59.942048028061,
20.0,23.75,39,0.75,Stimuli/P016/things_window_08s.jpg,0,0,0.0,0,9,9,9,,,,,,,,,,,,,20.000039900005504,3.9900005504023284e-05,None,,51.033677499995974,51.033677499995974,51.033677499995974,51.033677499995974,51.033677499995974,51.033677499995974,51.033677499995974,51.033677499995974,51.033677499995974,51.033677499995974,002,P022,2025_May_13_1705,ConditionRich,2021.2.3,59.942048028061,
23.75,24.0,41,0.0,Stimuli/Blank.png,0,0,0.0,0,10,10,10,,,,,,,,,,,,,23.769599900006142,0.01959990000614198,None,,54.78699649999908,54.78699649999908,54.78699649999908,54.78699649999908,54.78699649999908,54.78699649999908,54.78699649999908,54.78699649999908,54.78699649999908,54.78699649999908,002,P022,2025_May_13_1705,ConditionRich,2021.2.3,59.942048028061,
24.0,27.75,24,0.75,Stimuli/P016/things_bunkbed_08s.jpg,1,2,2.75,0,11,11,11,,,,,,,,,,,,,24.00340480000159,0.003404800001590047,1,2.5218009000018355,55.020535999996355,55.020535999996355,55.020535999996355,55.020535999996355,55.020535999996355,55.020535999996355,57.00565619999543,57.756301199995505,55.020535999996355,55.020535999996355,002,P022,2025_May_13_1705,ConditionRich,2021.2.3,59.942048028061,
27.75,28.0,41,0.0,Stimuli/Blank.png,0,0,0.0,0,12,12,12,,,,,,,,,,,,,27.7590582000048,0.00905820000480162,None,,58.790545399999246,58.790545399999246,58.790545399999246,58.790545399999246,58.790545399999246,58.790545399999246,58.790545399999246,58.790545399999246,58.790545399999246,58.790545399999246,002,P022,2025_May_13_1705,ConditionRich,2021.2.3,59.942048028061,
28.0,31.75,29,0.75,Stimuli/P016/things_mouse1_08s.jpg,0,0,0.0,0,13,13,13,,,,,,,,,,,,,28.02343870000186,0.023438700001861434,None,,59.040755099995295,59.040755099995295,59.040755099995295,59.040755099995295,59.040755099995295,59.040755099995295,59.040755099995295,59.040755099995295,59.040755099995295,59.040755099995295,002,P022,2025_May_13_1705,ConditionRich,2021.2.3,59.942048028061,
31.75,32.0,41,0.0,Stimuli/Blank.png,0,0,0.0,0,14,14,14,,,,,,,,,,,,,31.760347100003855,0.010347100003855303,None,,62.777504199999385,62.777504199999385,62.777504199999385,62.777504199999385,62.777504199999385,62.777504199999385,62.777504199999385,62.777504199999385,62.777504199999385,62.777504199999385,002,P022,2025_May_13_1705,ConditionRich,2021.2.3,59.942048028061,
32.0,35.75,1,0.75,Stimuli/P016/sun_aacpzgqrortyhyss.jpg,0,0,0.0,0,15,15,15,,,,,,,,,,,,,32.012708300004306,0.012708300004305784,None,,63.04431189999741,63.04431189999741,63.04431189999741,63.04431189999741,63.04431189999741,63.04431189999741,63.04431189999741,63.04431189999741,63.04431189999741,63.04431189999741,002,P022,2025_May_13_1705,ConditionRich,2021.2.3,59.942048028061,
35.75,36.0,41,0.0,Stimuli/Blank.png,0,0,0.0,0,16,16,16,,,,,,,,,,,,,35.76406790000328,0.014067900003283285,None,,66.78094589999819,66.78094589999819,66.78094589999819,66.78094589999819,66.78094589999819,66.78094589999819,66.78094589999819,66.78094589999819,66.78094589999819,66.78094589999819,002,P022,2025_May_13_1705,ConditionRich,2021.2.3,59.942048028061,
36.0,39.75,11,0.75,Stimuli/P016/sun_bnwmcjuinqbdsbho.jpg,1,0,0.75,0,17,17,17,,,,,,,,,,,,,36.0141350000049,0.014135000004898757,1,0.6483720000032918,67.03116210000007,67.03116210000007,67.03116210000007,67.03116210000007,67.03116210000007,67.03116210000007,67.03116210000007,67.76513999999588,67.03116210000007,67.03116210000007,002,P022,2025_May_13_1705,ConditionRich,2021.2.3,59.942048028061,
39.75,40.0,41,0.0,Stimuli/Blank.png,0,0,0.0,0,18,18,18,,,,,,,,,,,,,39.75023030000011,0.0002303000001120381,None,,70.76788990000205,70.76788990000205,70.76788990000205,70.76788990000205,70.76788990000205,70.76788990000205,70.76788990000205,70.76788990000205,70.76788990000205,70.76788990000205,002,P022,2025_May_13_1705,ConditionRich,2021.2.3,59.942048028061,
40.0,43.75,22,0.75,Stimuli/P016/things_baby_08s.jpg,1,1,1.75,0,19,19,19,,,,,,,,,,,,,40.00131720000354,0.0013172000035410747,1,1.348363100005372,71.01801800000248,71.01801800000248,71.01801800000248,71.01801800000248,71.01801800000248,71.01801800000248,72.00222470000153,72.75287189999653,71.01801800000248,71.01801800000248,002,P022,2025_May_13_1705,ConditionRich,2021.2.3,59.942048028061,
43.75,44.0,41,0.0,Stimuli/Blank.png,0,0,0.0,0,20,20,20,,,,,,,,,,,,,43.754836500003876,0.004836500003875699,None,,74.77134449999721,74.77134449999721,74.77134449999721,74.77134449999721,74.77134449999721,74.77134449999721,74.77134449999721,74.77134449999721,74.77134449999721,74.77134449999721,002,P022,2025_May_13_1705,ConditionRich,2021.2.3,59.942048028061,
44.0,47.75,6,0.75,Stimuli/P016/sun_akecfasimgpbqcnt.jpg,0,0,0.0,0,21,21,21,,,,,,,,,,,,,44.00463310000487,0.004633100004866719,None,,75.02155050000147,75.02155050000147,75.02155050000147,75.02155050000147,75.02155050000147,75.02155050000147,75.02155050000147,75.02155050000147,75.02155050000147,75.02155050000147,002,P022,2025_May_13_1705,ConditionRich,2021.2.3,59.942048028061,
47.75,48.0,41,0.0,Stimuli/Blank.png,0,0,0.0,0,22,22,22,,,,,,,,,,,,,47.75777410000592,0.007774100005917717,None,,78.77488099999755,78.77488099999755,78.77488099999755,78.77488099999755,78.77488099999755,78.77488099999755,78.77488099999755,78.77488099999755,78.77488099999755,78.77488099999755,002,P022,2025_May_13_1705,ConditionRich,2021.2.3,59.942048028061,
48.0,51.75,23,0.75,Stimuli/P016/things_boy_08s.jpg,0,0,0.0,0,23,23,23,,,,,,,,,,,,,48.00814290000562,0.008142900005623233,None,,79.02508939999825,79.02508939999825,79.02508939999825,79.02508939999825,79.02508939999825,79.02508939999825,79.02508939999825,79.02508939999825,79.02508939999825,79.02508939999825,002,P022,2025_May_13_1705,ConditionRich,2021.2.3,59.942048028061,
51.75,52.0,41,0.0,Stimuli/Blank.png,0,0,0.0,0,24,24,24,,,,,,,,,,,,,51.76306830000249,0.013068300002487376,None,,82.7951006000003,82.7951006000003,82.7951006000003,82.7951006000003,82.7951006000003,82.7951006000003,82.7951006000003,82.7951006000003,82.7951006000003,82.7951006000003,002,P022,2025_May_13_1705,ConditionRich,2021.2.3,59.942048028061,
52.0,55.75,25,0.75,Stimuli/P016/things_deer_08s.jpg,0,0,0.0,0,25,25,25,,,,,,,,,,,,,52.02835750000668,0.028357500006677583,None,,83.04534489999787,83.04534489999787,83.04534489999787,83.04534489999787,83.04534489999787,83.04534489999787,83.04534489999787,83.04534489999787,83.04534489999787,83.04534489999787,002,P022,2025_May_13_1705,ConditionRich,2021.2.3,59.942048028061,
55.75,56.0,41,0.0,Stimuli/Blank.png,0,0,0.0,0,26,26,26,,,,,,,,,,,,,55.76424310000584,0.01424310000584228,None,,86.78197989999899,86.78197989999899,86.78197989999899,86.78197989999899,86.78197989999899,86.78197989999899,86.78197989999899,86.78197989999899,86.78197989999899,86.78197989999899,002,P022,2025_May_13_1705,ConditionRich,2021.2.3,59.942048028061,
56.0,59.75,13,0.75,Stimuli/P016/sun_bphvjnowixlryxot.jpg,0,0,0.0,0,27,27,27,,,,,,,,,,,,,56.01533040000504,0.015330400005041156,None,,87.03217549999681,87.03217549999681,87.03217549999681,87.03217549999681,87.03217549999681,87.03217549999681,87.03217549999681,87.03217549999681,87.03217549999681,87.03217549999681,002,P022,2025_May_13_1705,ConditionRich,2021.2.3,59.942048028061,
59.75,60.0,41,0.0,Stimuli/Blank.png,0,0,0.0,0,28,28,28,,,,,,,,,,,,,59.751563100006024,0.0015631000060238875,None,,90.76880910000182,90.76880910000182,90.76880910000182,90.76880910000182,90.76880910000182,90.76880910000182,90.76880910000182,90.76880910000182,90.76880910000182,90.76880910000182,002,P022,2025_May_13_1705,ConditionRich,2021.2.3,59.942048028061,
60.0,63.75,37,0.75,Stimuli/P016/things_swizzle_stick_08s.jpg,0,0,0.0,0,29,29,29,,,,,,,,,,,,,60.00224230000458,0.002242300004581921,None,,91.01904239999567,91.01904239999567,91.01904239999567,91.01904239999567,91.01904239999567,91.01904239999567,91.01904239999567,91.01904239999567,91.01904239999567,91.01904239999567,002,P022,2025_May_13_1705,ConditionRich,2021.2.3,59.942048028061,
63.75,64.0,41,0.0,Stimuli/Blank.png,0,0,0.0,0,30,30,30,,,,,,,,,,,,,63.755641300005664,0.005641300005663652,None,,94.77234379999572,94.77234379999572,94.77234379999572,94.77234379999572,94.77234379999572,94.77234379999572,94.77234379999572,94.77234379999572,94.77234379999572,94.77234379999572,002,P022,2025_May_13_1705,ConditionRich,2021.2.3,59.942048028061,
64.0,67.75,20,0.75,Stimuli/P016/sun_bzmxulijbnmshodq.jpg,0,0,0.0,0,31,31,31,,,,,,,,,,,,,64.00529460000689,0.0052946000068914145,None,,95.0392664999963,95.0392664999963,95.0392664999963,95.0392664999963,95.0392664999963,95.0392664999963,95.0392664999963,95.0392664999963,95.0392664999963,95.0392664999963,002,P022,2025_May_13_1705,ConditionRich,2021.2.3,59.942048028061,
67.75,68.0,41,0.0,Stimuli/Blank.png,0,0,0.0,0,32,32,32,,,,,,,,,,,,,67.77790350000578,0.02790350000577746,None,,98.8092284000013,98.8092284000013,98.8092284000013,98.8092284000013,98.8092284000013,98.8092284000013,98.8092284000013,98.8092284000013,98.8092284000013,98.8092284000013,002,P022,2025_May_13_1705,ConditionRich,2021.2.3,59.942048028061,
68.0,71.75,5,0.75,Stimuli/P016/sun_ajgmxbrxdpmsaext.jpg,1,3,3.75,0,33,33,33,,,,,,,,,,,,,68.0277469000066,0.027746900006604847,1,3.4629715000046417,99.05947030000243,99.05947030000243,99.05947030000243,99.05947030000243,99.05947030000243,99.05947030000243,102.04545389999839,None,99.05947030000243,99.05947030000243,002,P022,2025_May_13_1705,ConditionRich,2021.2.3,59.942048028061,
71.75,72.0,41,0.0,Stimuli/Blank.png,0,0,0.0,0,34,34,34,,,,,,,,,,,,,71.77851840000221,0.02851840000221273,None,,102.79611090000253,102.79611090000253,102.79611090000253,102.79611090000253,102.79611090000253,102.79611090000253,102.79611090000253,102.79611090000253,102.79611090000253,102.79611090000253,002,P022,2025_May_13_1705,ConditionRich,2021.2.3,59.942048028061,
72.0,75.75,38,0.75,Stimuli/P016/things_trumpet_08s.jpg,1,0,0.75,0,35,35,35,,,,,,,,,,,,,72.01276060000237,0.012760600002366118,1,0.6649497999969753,103.02962090000074,103.02962090000074,103.02962090000074,103.02962090000074,103.02962090000074,103.02962090000074,103.02962090000074,103.7636593999996,103.02962090000074,103.02962090000074,002,P022,2025_May_13_1705,ConditionRich,2021.2.3,59.942048028061,
75.75,76.0,41,0.0,Stimuli/Blank.png,0,0,0.0,0,36,36,36,,,,,,,,,,,,,75.74977670000226,-0.00022329999774228781,None,,106.76628599999822,106.76628599999822,106.76628599999822,106.76628599999822,106.76628599999822,106.76628599999822,106.76628599999822,106.76628599999822,106.76628599999822,106.76628599999822,002,P022,2025_May_13_1705,ConditionRich,2021.2.3,59.942048028061,
76.0,79.75,9,0.75,Stimuli/P016/sun_bbdgftzhpkaklkll.jpg,0,0,0.0,0,37,37,37,,,,,,,,,,,,,75.9989224000019,-0.0010775999980978668,None,,107.01661410000088,107.01661410000088,107.01661410000088,107.01661410000088,107.01661410000088,107.01661410000088,107.01661410000088,107.01661410000088,107.01661410000088,107.01661410000088,002,P022,2025_May_13_1705,ConditionRich,2021.2.3,59.942048028061,
79.75,80.0,41,0.0,Stimuli/Blank.png,0,0,0.0,0,38,38,38,,,,,,,,,,,,,79.753400900001,0.0034009000009973533,None,,110.76983749999636,110.76983749999636,110.76983749999636,110.76983749999636,110.76983749999636,110.76983749999636,110.76983749999636,110.76983749999636,110.76983749999636,110.76983749999636,002,P022,2025_May_13_1705,ConditionRich,2021.2.3,59.942048028061,
80.0,83.75,19,0.75,Stimuli/P016/sun_bzhwvgrzvttqoexa.jpg,0,0,0.0,0,39,39,39,,,,,,,,,,,,,80.00305450000451,0.003054500004509464,None,,111.02004650000163,111.02004650000163,111.02004650000163,111.02004650000163,111.02004650000163,111.02004650000163,111.02004650000163,111.02004650000163,111.02004650000163,111.02004650000163,002,P022,2025_May_13_1705,ConditionRich,2021.2.3,59.942048028061,
83.75,84.0,41,0.0,Stimuli/Blank.png,0,0,0.0,0,40,40,40,,,,,,,,,,,,,83.7570005000016,0.007000500001595356,None,,114.77338109999982,114.77338109999982,114.77338109999982,114.77338109999982,114.77338109999982,114.77338109999982,114.77338109999982,114.77338109999982,114.77338109999982,114.77338109999982,002,P022,2025_May_13_1705,ConditionRich,2021.2.3,59.942048028061,
84.0,100.0,0,0.0,Stimuli/Blank.png,1,5,5.75,0,41,41,41,,,,,,,,,,,,,84.00675900000351,0.006759000003512483,1,5.3332895999992616,115.02363609999884,115.02363609999884,115.02363609999884,115.02363609999884,115.02363609999884,115.02363609999884,120.0113280000005,120.76200199999585,115.02363609999884,115.02363609999884,002,P022,2025_May_13_1705,ConditionRich,2021.2.3,59.942048028061,
100.0,103.75,28,0.75,Stimuli/P016/things_latte_08s.jpg,0,0,0.0,0,42,42,42,,,,,,,,,,,,,100.00421000000642,0.0042100000064237975,None,,131.0210625999971,131.0210625999971,131.0210625999971,131.0210625999971,131.0210625999971,131.0210625999971,131.0210625999971,131.0210625999971,131.0210625999971,131.0210625999971,002,P022,2025_May_13_1705,ConditionRich,2021.2.3,59.942048028061,
103.75,104.0,41,0.0,Stimuli/Blank.png,0,0,0.0,0,43,43,43,,,,,,,,,,,,,103.75768750000134,0.007687500001338776,None,,134.7743868999969,134.7743868999969,134.7743868999969,134.7743868999969,134.7743868999969,134.7743868999969,134.7743868999969,134.7743868999969,134.7743868999969,134.7743868999969,002,P022,2025_May_13_1705,ConditionRich,2021.2.3,59.942048028061,
104.0,107.75,27,0.75,Stimuli/P016/things_girl_08s.jpg,0,0,0.0,0,44,44,44,,,,,,,,,,,,,104.00756210000691,0.007562100006907713,None,,135.02460900000005,135.02460900000005,135.02460900000005,135.02460900000005,135.02460900000005,135.02460900000005,135.02460900000005,135.02460900000005,135.02460900000005,135.02460900000005,002,P022,2025_May_13_1705,ConditionRich,2021.2.3,59.942048028061,
107.75,108.0,41,0.0,Stimuli/Blank.png,0,0,0.0,0,45,45,45,,,,,,,,,,,,,107.76263720000134,0.012637200001336168,None,,138.79462529999728,138.79462529999728,138.79462529999728,138.79462529999728,138.79462529999728,138.79462529999728,138.79462529999728,138.79462529999728,138.79462529999728,138.79462529999728,002,P022,2025_May_13_1705,ConditionRich,2021.2.3,59.942048028061,
108.0,111.75,40,0.75,Stimuli/P016/things_woman_08s.jpg,0,0,0.0,0,46,46,46,,,,,,,,,,,,,108.02795770000375,0.027957700003753416,None,,139.06157739999617,139.06157739999617,139.06157739999617,139.06157739999617,139.06157739999617,139.06157739999617,139.06157739999617,139.06157739999617,139.06157739999617,139.06157739999617,002,P022,2025_May_13_1705,ConditionRich,2021.2.3,59.942048028061,
111.75,112.0,41,0.0,Stimuli/Blank.png,0,0,0.0,0,47,47,47,,,,,,,,,,,,,111.7826256000044,0.03262560000439407,None,,142.81483170000138,142.81483170000138,142.81483170000138,142.81483170000138,142.81483170000138,142.81483170000138,142.81483170000138,142.81483170000138,142.81483170000138,142.81483170000138,002,P022,2025_May_13_1705,ConditionRich,2021.2.3,59.942048028061,
112.0,115.75,32,0.75,Stimuli/P016/things_pheasant_08s.jpg,0,0,0.0,0,48,48,48,,,,,,,,,,,,,112.0146864000053,0.014686400005302858,None,,143.04839199999697,143.04839199999697,143.04839199999697,143.04839199999697,143.04839199999697,143.04839199999697,143.04839199999697,143.04839199999697,143.04839199999697,143.04839199999697,002,P022,2025_May_13_1705,ConditionRich,2021.2.3,59.942048028061,
115.75,116.0,41,0.0,Stimuli/Blank.png,0,0,0.0,0,49,49,49,,,,,,,,,,,,,115.76794350000273,0.017943500002729706,None,,146.78500440000062,146.78500440000062,146.78500440000062,146.78500440000062,146.78500440000062,146.78500440000062,146.78500440000062,146.78500440000062,146.78500440000062,146.78500440000062,002,P022,2025_May_13_1705,ConditionRich,2021.2.3,59.942048028061,
116.0,119.75,4,0.75,Stimuli/P016/sun_aiwuqxdqzftsfyeg.jpg,0,0,0.0,0,50,50,50,,,,,,,,,,,,,116.00093650000053,0.0009365000005345792,None,,147.01851560000068,147.01851560000068,147.01851560000068,147.01851560000068,147.01851560000068,147.01851560000068,147.01851560000068,147.01851560000068,147.01851560000068,147.01851560000068,002,P022,2025_May_13_1705,ConditionRich,2021.2.3,59.942048028061,
119.75,120.0,41,0.0,Stimuli/Blank.png,0,0,0.0,0,51,51,51,,,,,,,,,,,,,119.75499320000381,0.004993200003809761,None,,150.7719444999966,150.7719444999966,150.7719444999966,150.7719444999966,150.7719444999966,150.7719444999966,150.7719444999966,150.7719444999966,150.7719444999966,150.7719444999966,002,P022,2025_May_13_1705,ConditionRich,2021.2.3,59.942048028061,
120.0,123.75,30,0.75,Stimuli/P016/things_ottoman_08s.jpg,0,0,0.0,0,52,52,52,,,,,,,,,,,,,120.00513970000611,0.005139700006111525,None,,151.03877210000064,151.03877210000064,151.03877210000064,151.03877210000064,151.03877210000064,151.03877210000064,151.03877210000064,151.03877210000064,151.03877210000064,151.03877210000064,002,P022,2025_May_13_1705,ConditionRich,2021.2.3,59.942048028061,
123.75,124.0,41,0.0,Stimuli/Blank.png,0,0,0.0,0,53,53,53,,,,,,,,,,,,,123.77517670000088,0.02517670000088401,None,,154.7921389999974,154.7921389999974,154.7921389999974,154.7921389999974,154.7921389999974,154.7921389999974,154.7921389999974,154.7921389999974,154.7921389999974,154.7921389999974,002,P022,2025_May_13_1705,ConditionRich,2021.2.3,59.942048028061,
124.0,127.75,12,0.75,Stimuli/P016/sun_boffixsnbbloarty.jpg,0,0,0.0,0,54,54,54,,,,,,,,,,,,,124.00870650000434,0.008706500004336704,None,,155.02562909999688,155.02562909999688,155.02562909999688,155.02562909999688,155.02562909999688,155.02562909999688,155.02562909999688,155.02562909999688,155.02562909999688,155.02562909999688,002,P022,2025_May_13_1705,ConditionRich,2021.2.3,59.942048028061,
127.75,128.0,41,0.0,Stimuli/Blank.png,0,0,0.0,0,55,55,55,,,,,,,,,,,,,127.76329790000455,0.013297900004545227,None,,158.7956322999962,158.7956322999962,158.7956322999962,158.7956322999962,158.7956322999962,158.7956322999962,158.7956322999962,158.7956322999962,158.7956322999962,158.7956322999962,002,P022,2025_May_13_1705,ConditionRich,2021.2.3,59.942048028061,
128.0,131.75,17,0.75,Stimuli/P016/sun_bxhbltvqnpaciuzt.jpg,1,3,3.75,0,56,56,56,,,,,,,,,,,,,128.02815700000065,0.028157000000646804,1,3.4967739999992773,159.0458376999959,159.0458376999959,159.0458376999959,159.0458376999959,159.0458376999959,159.0458376999959,162.03182939999533,None,159.0458376999959,159.0458376999959,002,P022,2025_May_13_1705,ConditionRich,2021.2.3,59.942048028061,
131.75,132.0,41,0.0,Stimuli/Blank.png,0,0,0.0,0,57,57,57,,,,,,,,,,,,,131.76549220000015,0.015492200000153389,None,,162.7825632000022,162.7825632000022,162.7825632000022,162.7825632000022,162.7825632000022,162.7825632000022,162.7825632000022,162.7825632000022,162.7825632000022,162.7825632000022,002,P022,2025_May_13_1705,ConditionRich,2021.2.3,59.942048028061,
132.0,135.75,26,0.75,Stimuli/P016/things_face_08s.jpg,1,3,3.75,0,58,58,58,,,,,,,,,,,,,132.01521300000604,0.01521300000604242,1,3.676996700000018,163.04939159999776,163.04939159999776,163.04939159999776,163.04939159999776,163.04939159999776,163.04939159999776,166.01867779999884,None,163.04939159999776,163.04939159999776,002,P022,2025_May_13_1705,ConditionRich,2021.2.3,59.942048028061,
135.75,136.0,41,0.0,Stimuli/Blank.png,0,0,0.0,0,59,59,59,,,,,,,,,,,,,135.7693267000068,0.019326700006786268,None,,166.78601889999845,166.78601889999845,166.78601889999845,166.78601889999845,166.78601889999845,166.78601889999845,166.78601889999845,166.78601889999845,166.78601889999845,166.78601889999845,002,P022,2025_May_13_1705,ConditionRich,2021.2.3,59.942048028061,
136.0,139.75,31,0.75,Stimuli/P016/things_outlet_08s.jpg,0,0,0.0,0,60,60,60,,,,,,,,,,,,,136.002015200007,0.0020152000070083886,None,,167.01956619999692,167.01956619999692,167.01956619999692,167.01956619999692,167.01956619999692,167.01956619999692,167.01956619999692,167.01956619999692,167.01956619999692,167.01956619999692,002,P022,2025_May_13_1705,ConditionRich,2021.2.3,59.942048028061,
139.75,140.0,41,0.0,Stimuli/Blank.png,0,0,0.0,0,61,61,61,,,,,,,,,,,,,139.75538330000563,0.005383300005632918,None,,170.77296119999664,170.77296119999664,170.77296119999664,170.77296119999664,170.77296119999664,170.77296119999664,170.77296119999664,170.77296119999664,170.77296119999664,170.77296119999664,002,P022,2025_May_13_1705,ConditionRich,2021.2.3,59.942048028061,
140.0,143.75,18,0.75,Stimuli/P016/sun_byavixgfuhzioilz.jpg,0,0,0.0,0,62,62,62,,,,,,,,,,,,,140.0088612000036,0.008861200003593694,None,,171.03979229999823,171.03979229999823,171.03979229999823,171.03979229999823,171.03979229999823,171.03979229999823,171.03979229999823,171.03979229999823,171.03979229999823,171.03979229999823,002,P022,2025_May_13_1705,ConditionRich,2021.2.3,59.942048028061,
143.75,144.0,41,0.0,Stimuli/Blank.png,0,0,0.0,0,63,63,63,,,,,,,,,,,,,143.7779509000029,0.027950900002906565,None,,174.80978170000162,174.80978170000162,174.80978170000162,174.80978170000162,174.80978170000162,174.80978170000162,174.80978170000162,174.80978170000162,174.80978170000162,174.80978170000162,002,P022,2025_May_13_1705,ConditionRich,2021.2.3,59.942048028061,
144.0,147.75,3,0.75,Stimuli/P016/sun_aiogwnavezqxkzfg.jpg,0,0,0.0,0,64,64,64,,,,,,,,,,,,,144.02711750000162,0.02711750000162283,None,,175.0600115999987,175.0600115999987,175.0600115999987,175.0600115999987,175.0600115999987,175.0600115999987,175.0600115999987,175.0600115999987,175.0600115999987,175.0600115999987,002,P022,2025_May_13_1705,ConditionRich,2021.2.3,59.942048028061,
147.75,148.0,41,0.0,Stimuli/Blank.png,0,0,0.0,0,65,65,65,,,,,,,,,,,,,147.77961720000167,0.029617200001666788,None,,178.79664849999972,178.79664849999972,178.79664849999972,178.79664849999972,178.79664849999972,178.79664849999972,178.79664849999972,178.79664849999972,178.79664849999972,178.79664849999972,002,P022,2025_May_13_1705,ConditionRich,2021.2.3,59.942048028061,
148.0,151.75,36,0.75,Stimuli/P016/things_streetlight_08s.jpg,0,0,0.0,0,66,66,66,,,,,,,,,,,,,148.01243430000613,0.012434300006134436,None,,179.03018650000013,179.03018650000013,179.03018650000013,179.03018650000013,179.03018650000013,179.03018650000013,179.03018650000013,179.03018650000013,179.03018650000013,179.03018650000013,002,P022,2025_May_13_1705,ConditionRich,2021.2.3,59.942048028061,
151.75,152.0,41,0.0,Stimuli/Blank.png,0,0,0.0,0,67,67,67,,,,,,,,,,,,,151.74980600000708,-0.0001939999929163605,None,,182.76681850000023,182.76681850000023,182.76681850000023,182.76681850000023,182.76681850000023,182.76681850000023,182.76681850000023,182.76681850000023,182.76681850000023,182.76681850000023,002,P022,2025_May_13_1705,ConditionRich,2021.2.3,59.942048028061,
152.0,155.75,35,0.75,Stimuli/P016/things_squid_08s.jpg,0,0,0.0,0,68,68,68,,,,,,,,,,,,,152.00005810000584,5.810000584460795e-05,None,,183.01700880000135,183.01700880000135,183.01700880000135,183.01700880000135,183.01700880000135,183.01700880000135,183.01700880000135,183.01700880000135,183.01700880000135,183.01700880000135,002,P022,2025_May_13_1705,ConditionRich,2021.2.3,59.942048028061,
155.75,156.0,41,0.0,Stimuli/Blank.png,0,0,0.0,0,69,69,69,,,,,,,,,,,,,155.75377480000316,0.0037748000031569973,None,,186.77036419999786,186.77036419999786,186.77036419999786,186.77036419999786,186.77036419999786,186.77036419999786,186.77036419999786,186.77036419999786,186.77036419999786,186.77036419999786,002,P022,2025_May_13_1705,ConditionRich,2021.2.3,59.942048028061,
156.0,159.75,14,0.75,Stimuli/P016/sun_bpvmkbyglkraoxhh.jpg,1,2,2.75,0,70,70,70,,,,,,,,,,,,,156.00381540000672,0.0038154000067152083,1,2.381061200001568,187.020569100001,187.020569100001,187.020569100001,187.020569100001,187.020569100001,187.020569100001,189.00562479999644,189.75632210000185,187.020569100001,187.020569100001,002,P022,2025_May_13_1705,ConditionRich,2021.2.3,59.942048028061,
159.75,160.0,41,0.0,Stimuli/Blank.png,0,0,0.0,0,71,71,71,,,,,,,,,,,,,159.75919300000533,0.009193000005325302,None,,190.79059440000128,190.79059440000128,190.79059440000128,190.79059440000128,190.79059440000128,190.79059440000128,190.79059440000128,190.79059440000128,190.79059440000128,190.79059440000128,002,P022,2025_May_13_1705,ConditionRich,2021.2.3,59.942048028061,
160.0,163.75,15,0.75,Stimuli/P016/sun_bvfcijehgdsndfbg.jpg,0,0,0.0,0,72,72,72,,,,,,,,,,,,,160.023892600002,0.02389260000200011,None,,191.04079469999851,191.04079469999851,191.04079469999851,191.04079469999851,191.04079469999851,191.04079469999851,191.04079469999851,191.04079469999851,191.04079469999851,191.04079469999851,002,P022,2025_May_13_1705,ConditionRich,2021.2.3,59.942048028061,
163.75,164.0,41,0.0,Stimuli/Blank.png,0,0,0.0,0,73,73,73,,,,,,,,,,,,,163.7602779000008,0.01027790000080131,None,,194.77744499999972,194.77744499999972,194.77744499999972,194.77744499999972,194.77744499999972,194.77744499999972,194.77744499999972,194.77744499999972,194.77744499999972,194.77744499999972,002,P022,2025_May_13_1705,ConditionRich,2021.2.3,59.942048028061,
164.0,167.75,21,0.75,Stimuli/P016/things_arch_08s.jpg,0,0,0.0,0,74,74,74,,,,,,,,,,,,,164.01081920000433,0.010819200004334562,None,,195.0443546999959,195.0443546999959,195.0443546999959,195.0443546999959,195.0443546999959,195.0443546999959,195.0443546999959,195.0443546999959,195.0443546999959,195.0443546999959,002,P022,2025_May_13_1705,ConditionRich,2021.2.3,59.942048028061,
167.75,168.0,41,0.0,Stimuli/Blank.png,0,0,0.0,0,75,75,75,,,,,,,,,,,,,167.78009640000528,0.030096400005277246,None,,198.7976697999984,198.7976697999984,198.7976697999984,198.7976697999984,198.7976697999984,198.7976697999984,198.7976697999984,198.7976697999984,198.7976697999984,198.7976697999984,002,P022,2025_May_13_1705,ConditionRich,2021.2.3,59.942048028061,
168.0,171.75,8,0.75,Stimuli/P016/sun_arldxotvfucvuudk.jpg,0,0,0.0,0,76,76,76,,,,,,,,,,,,,168.01422150000144,0.01422150000144029,None,,199.03119879999576,199.03119879999576,199.03119879999576,199.03119879999576,199.03119879999576,199.03119879999576,199.03119879999576,199.03119879999576,199.03119879999576,199.03119879999576,002,P022,2025_May_13_1705,ConditionRich,2021.2.3,59.942048028061,
171.75,172.0,41,0.0,Stimuli/Blank.png,0,0,0.0,0,77,77,77,,,,,,,,,,,,,171.75012210000568,0.00012210000568302348,None,,202.76783659999637,202.76783659999637,202.76783659999637,202.76783659999637,202.76783659999637,202.76783659999637,202.76783659999637,202.76783659999637,202.76783659999637,202.76783659999637,002,P022,2025_May_13_1705,ConditionRich,2021.2.3,59.942048028061,
172.0,175.75,2,0.75,Stimuli/P016/sun_agzfkftryitnqpxc.jpg,0,0,0.0,0,78,78,78,,,,,,,,,,,,,172.00273440000456,0.002734400004555937,None,,203.03474589999678,203.03474589999678,203.03474589999678,203.03474589999678,203.03474589999678,203.03474589999678,203.03474589999678,203.03474589999678,203.03474589999678,203.03474589999678,002,P022,2025_May_13_1705,ConditionRich,2021.2.3,59.942048028061,
175.75,176.0,41,0.0,Stimuli/Blank.png,0,0,0.0,0,79,79,79,,,,,,,,,,,,,175.77112590000615,0.021125900006154552,None,,206.78806719999557,206.78806719999557,206.78806719999557,206.78806719999557,206.78806719999557,206.78806719999557,206.78806719999557,206.78806719999557,206.78806719999557,206.78806719999557,002,P022,2025_May_13_1705,ConditionRich,2021.2.3,59.942048028061,
176.0,179.75,33,0.75,Stimuli/P016/things_raccoon_08n.jpg,1,2,2.75,0,80,80,80,,,,,,,,,,,,,176.00474880000547,0.004748800005472731,1,2.3752112000001944,207.03828480000084,207.03828480000084,207.03828480000084,207.03828480000084,207.03828480000084,207.03828480000084,209.02337999999872,209.75735200000054,207.03828480000084,207.03828480000084,002,P022,2025_May_13_1705,ConditionRich,2021.2.3,59.942048028061,
179.75,180.0,41,0.0,Stimuli/Blank.png,0,0,0.0,0,81,81,81,,,,,,,,,,,,,179.7747873000044,0.024787300004391,None,,210.7915967000008,210.7915967000008,210.7915967000008,210.7915967000008,210.7915967000008,210.7915967000008,210.7915967000008,210.7915967000008,210.7915967000008,210.7915967000008,002,P022,2025_May_13_1705,ConditionRich,2021.2.3,59.942048028061,
180.0,196.0,0,0.0,Stimuli/Blank.png,1,5,5.75,0,82,82,82,,,,,,,,,,,,,180.00847500000236,0.008475000002363231,1,5.415287699994224,211.02514939999674,211.02514939999674,211.02514939999674,211.02514939999674,211.02514939999674,211.02514939999674,216.01288419999764,216.76355730000068,211.02514939999674,211.02514939999674,002,P022,2025_May_13_1705,ConditionRich,2021.2.3,59.942048028061,
196.0,199.75,11,0.75,Stimuli/P016/sun_bnwmcjuinqbdsbho.jpg,0,0,0.0,0,83,83,83,,,,,,,,,,,,,196.00824530000682,0.008245300006819889,None,,227.03929249999783,227.03929249999783,227.03929249999783,227.03929249999783,227.03929249999783,227.03929249999783,227.03929249999783,227.03929249999783,227.03929249999783,227.03929249999783,002,P022,2025_May_13_1705,ConditionRich,2021.2.3,59.942048028061,
199.75,200.0,41,0.0,Stimuli/Blank.png,0,0,0.0,0,84,84,84,,,,,,,,,,,,,199.77785120000044,0.027851200000441168,None,,230.80929509999987,230.80929509999987,230.80929509999987,230.80929509999987,230.80929509999987,230.80929509999987,230.80929509999987,230.80929509999987,230.80929509999987,230.80929509999987,002,P022,2025_May_13_1705,ConditionRich,2021.2.3,59.942048028061,
200.0,203.75,8,0.75,Stimuli/P016/sun_arldxotvfucvuudk.jpg,0,0,0.0,0,85,85,85,,,,,,,,,,,,,200.02589790000638,0.02589790000638459,None,,231.05952470000193,231.05952470000193,231.05952470000193,231.05952470000193,231.05952470000193,231.05952470000193,231.05952470000193,231.05952470000193,231.05952470000193,231.05952470000193,002,P022,2025_May_13_1705,ConditionRich,2021.2.3,59.942048028061,
203.75,204.0,41,0.0,Stimuli/Blank.png,0,0,0.0,0,86,86,86,,,,,,,,,,,,,203.7785542000056,0.02855420000560116,None,,234.79615840000042,234.79615840000042,234.79615840000042,234.79615840000042,234.79615840000042,234.79615840000042,234.79615840000042,234.79615840000042,234.79615840000042,234.79615840000042,002,P022,2025_May_13_1705,ConditionRich,2021.2.3,59.942048028061,
204.0,207.75,17,0.75,Stimuli/P016/sun_bxhbltvqnpaciuzt.jpg,0,0,0.0,0,87,87,87,,,,,,,,,,,,,204.01234460000705,0.012344600007054396,None,,235.02969329999905,235.02969329999905,235.02969329999905,235.02969329999905,235.02969329999905,235.02969329999905,235.02969329999905,235.02969329999905,235.02969329999905,235.02969329999905,002,P022,2025_May_13_1705,ConditionRich,2021.2.3,59.942048028061,
207.75,208.0,41,0.0,Stimuli/Blank.png,0,0,0.0,0,88,88,88,,,,,,,,,,,,,207.76600610000605,0.016006100006052293,None,,238.78302019999683,238.78302019999683,238.78302019999683,238.78302019999683,238.78302019999683,238.78302019999683,238.78302019999683,238.78302019999683,238.78302019999683,238.78302019999683,002,P022,2025_May_13_1705,ConditionRich,2021.2.3,59.942048028061,
208.0,211.75,5,0.75,Stimuli/P016/sun_ajgmxbrxdpmsaext.jpg,0,0,0.0,0,89,89,89,,,,,,,,,,,,,207.9995557000002,-0.0004442999997991137,None,,239.01654849999613,239.01654849999613,239.01654849999613,239.01654849999613,239.01654849999613,239.01654849999613,239.01654849999613,239.01654849999613,239.01654849999613,239.01654849999613,002,P022,2025_May_13_1705,ConditionRich,2021.2.3,59.942048028061,
211.75,212.0,41,0.0,Stimuli/Blank.png,0,0,0.0,0,90,90,90,,,,,,,,,,,,,211.7536093000017,0.0036093000016990118,None,,242.76988059999712,242.76988059999712,242.76988059999712,242.76988059999712,242.76988059999712,242.76988059999712,242.76988059999712,242.76988059999712,242.76988059999712,242.76988059999712,002,P022,2025_May_13_1705,ConditionRich,2021.2.3,59.942048028061,
212.0,215.75,25,0.75,Stimuli/P016/things_deer_08s.jpg,0,0,0.0,0,91,91,91,,,,,,,,,,,,,212.0034272000048,0.0034272000048076734,None,,243.03678229999787,243.03678229999787,243.03678229999787,243.03678229999787,243.03678229999787,243.03678229999787,243.03678229999787,243.03678229999787,243.03678229999787,243.03678229999787,002,P022,2025_May_13_1705,ConditionRich,2021.2.3,59.942048028061,
215.75,216.0,41,0.0,Stimuli/Blank.png,0,0,0.0,0,92,92,92,,,,,,,,,,,,,215.77321780000057,0.023217800000566058,None,,246.7900909999953,246.7900909999953,246.7900909999953,246.7900909999953,246.7900909999953,246.7900909999953,246.7900909999953,246.7900909999953,246.7900909999953,246.7900909999953,002,P022,2025_May_13_1705,ConditionRich,2021.2.3,59.942048028061,
216.0,219.75,16,0.75,Stimuli/P016/sun_bwhuwxazfqwuqhik.jpg,0,0,0.0,0,93,93,93,,,,,,,,,,,,,216.0087147000013,0.00871470000129193,None,,247.0403151999999,247.0403151999999,247.0403151999999,247.0403151999999,247.0403151999999,247.0403151999999,247.0403151999999,247.0403151999999,247.0403151999999,247.0403151999999,002,P022,2025_May_13_1705,ConditionRich,2021.2.3,59.942048028061,
219.75,220.0,41,0.0,Stimuli/Blank.png,0,0,0.0,0,94,94,94,,,,,,,,,,,,,219.77812780000386,0.028127800003858283,None,,250.81031259999872,250.81031259999872,250.81031259999872,250.81031259999872,250.81031259999872,250.81031259999872,250.81031259999872,250.81031259999872,250.81031259999872,250.81031259999872,002,P022,2025_May_13_1705,ConditionRich,2021.2.3,59.942048028061,
220.0,223.75,2,0.75,Stimuli/P016/sun_agzfkftryitnqpxc.jpg,0,0,0.0,0,95,95,95,,,,,,,,,,,,,220.0289494000026,0.028949400002602488,None,,251.0605288000006,251.0605288000006,251.0605288000006,251.0605288000006,251.0605288000006,251.0605288000006,251.0605288000006,251.0605288000006,251.0605288000006,251.0605288000006,002,P022,2025_May_13_1705,ConditionRich,2021.2.3,59.942048028061,
223.75,224.0,41,0.0,Stimuli/Blank.png,0,0,0.0,0,96,96,96,,,,,,,,,,,,,223.78048520000448,0.03048520000447752,None,,254.7971830999959,254.7971830999959,254.7971830999959,254.7971830999959,254.7971830999959,254.7971830999959,254.7971830999959,254.7971830999959,254.7971830999959,254.7971830999959,002,P022,2025_May_13_1705,ConditionRich,2021.2.3,59.942048028061,
224.0,227.75,12,0.75,Stimuli/P016/sun_boffixsnbbloarty.jpg,0,0,0.0,0,97,97,97,,,,,,,,,,,,,224.01307510000333,0.013075100003334228,None,,255.03071279999858,255.03071279999858,255.03071279999858,255.03071279999858,255.03071279999858,255.03071279999858,255.03071279999858,255.03071279999858,255.03071279999858,255.03071279999858,002,P022,2025_May_13_1705,ConditionRich,2021.2.3,59.942048028061,
227.75,228.0,41,0.0,Stimuli/Blank.png,0,0,0.0,0,98,98,98,,,,,,,,,,,,,227.7501820000034,0.00018200000340584666,None,,258.7675212999966,258.7675212999966,258.7675212999966,258.7675212999966,258.7675212999966,258.7675212999966,258.7675212999966,258.7675212999966,258.7675212999966,258.7675212999966,002,P022,2025_May_13_1705,ConditionRich,2021.2.3,59.942048028061,
228.0,231.75,26,0.75,Stimuli/P016/things_face_08s.jpg,1,0,0.75,0,99,99,99,,,,,,,,,,,,,228.0029674000034,0.0029674000033992343,1,0.47727519999898504,259.03425309999875,259.03425309999875,259.03425309999875,259.03425309999875,259.03425309999875,259.03425309999875,259.03425309999875,259.7682730000015,259.03425309999875,259.03425309999875,002,P022,2025_May_13_1705,ConditionRich,2021.2.3,59.942048028061,
231.75,232.0,41,0.0,Stimuli/Blank.png,0,0,0.0,0,100,100,100,,,,,,,,,,,,,231.77291450000484,0.02291450000484474,None,,262.80424689999927,262.80424689999927,262.80424689999927,262.80424689999927,262.80424689999927,262.80424689999927,262.80424689999927,262.80424689999927,262.80424689999927,262.80424689999927,002,P022,2025_May_13_1705,ConditionRich,2021.2.3,59.942048028061,
232.0,235.75,19,0.75,Stimuli/P016/sun_bzhwvgrzvttqoexa.jpg,0,0,0.0,0,101,101,101,,,,,,,,,,,,,232.02306650000537,0.02306650000537047,None,,263.0544732999988,263.0544732999988,263.0544732999988,263.0544732999988,263.0544732999988,263.0544732999988,263.0544732999988,263.0544732999988,263.0544732999988,263.0544732999988,002,P022,2025_May_13_1705,ConditionRich,2021.2.3,59.942048028061,
235.75,236.0,41,0.0,Stimuli/Blank.png,0,0,0.0,0,102,102,102,,,,,,,,,,,,,235.77355780000653,0.02355780000652885,None,,266.7910907999976,266.7910907999976,266.7910907999976,266.7910907999976,266.7910907999976,266.7910907999976,266.7910907999976,266.7910907999976,266.7910907999976,266.7910907999976,002,P022,2025_May_13_1705,ConditionRich,2021.2.3,59.942048028061,
236.0,239.75,27,0.75,Stimuli/P016/things_girl_08s.jpg,0,0,0.0,0,103,103,103,,,,,,,,,,,,,236.00765280000633,0.007652800006326288,None,,267.0413598000014,267.0413598000014,267.0413598000014,267.0413598000014,267.0413598000014,267.0413598000014,267.0413598000014,267.0413598000014,267.0413598000014,267.0413598000014,002,P022,2025_May_13_1705,ConditionRich,2021.2.3,59.942048028061,
239.75,240.0,41,0.0,Stimuli/Blank.png,0,0,0.0,0,104,104,104,,,,,,,,,,,,,239.7781926000025,0.028192600002512336,None,,270.7946508000023,270.7946508000023,270.7946508000023,270.7946508000023,270.7946508000023,270.7946508000023,270.7946508000023,270.7946508000023,270.7946508000023,270.7946508000023,002,P022,2025_May_13_1705,ConditionRich,2021.2.3,59.942048028061,
240.0,243.75,35,0.75,Stimuli/P016/things_squid_08s.jpg,0,0,0.0,0,105,105,105,,,,,,,,,,,,,240.01157370000146,0.011573700001463294,None,,271.02818359999947,271.02818359999947,271.02818359999947,271.02818359999947,271.02818359999947,271.02818359999947,271.02818359999947,271.02818359999947,271.02818359999947,271.02818359999947,002,P022,2025_May_13_1705,ConditionRich,2021.2.3,59.942048028061,
243.75,244.0,41,0.0,Stimuli/Blank.png,0,0,0.0,0,106,106,106,,,,,,,,,,,,,243.76381010000478,0.01381010000477545,None,,274.7814988999962,274.7814988999962,274.7814988999962,274.7814988999962,274.7814988999962,274.7814988999962,274.7814988999962,274.7814988999962,274.7814988999962,274.7814988999962,002,P022,2025_May_13_1705,ConditionRich,2021.2.3,59.942048028061,
244.0,247.75,23,0.75,Stimuli/P016/things_boy_08s.jpg,0,0,0.0,0,107,107,107,,,,,,,,,,,,,244.0140637000004,0.014063700000406243,None,,275.03171999999904,275.03171999999904,275.03171999999904,275.03171999999904,275.03171999999904,275.03171999999904,275.03171999999904,275.03171999999904,275.03171999999904,275.03171999999904,002,P022,2025_May_13_1705,ConditionRich,2021.2.3,59.942048028061,
247.75,248.0,41,0.0,Stimuli/Blank.png,0,0,0.0,0,108,108,108,,,,,,,,,,,,,247.75339150000218,0.003391500002180692,None,,278.78507369999716,278.78507369999716,278.78507369999716,278.78507369999716,278.78507369999716,278.78507369999716,278.78507369999716,278.78507369999716,278.78507369999716,278.78507369999716,002,P022,2025_May_13_1705,ConditionRich,2021.2.3,59.942048028061,
248.0,251.75,1,0.75,Stimuli/P016/sun_aacpzgqrortyhyss.jpg,1,0,0.75,0,109,109,109,,,,,,,,,,,,,248.0182225000026,0.018222500002593733,1,0.4235337999998592,279.05197580000095,279.05197580000095,279.05197580000095,279.05197580000095,279.05197580000095,279.05197580000095,279.05197580000095,279.76926439999806,279.05197580000095,279.05197580000095,002,P022,2025_May_13_1705,ConditionRich,2021.2.3,59.942048028061,
251.75,252.0,41,0.0,Stimuli/Blank.png,0,0,0.0,0,110,110,110,,,,,,,,,,,,,251.7733084000065,0.02330840000649914,None,,282.8052639000016,282.8052639000016,282.8052639000016,282.8052639000016,282.8052639000016,282.8052639000016,282.8052639000016,282.8052639000016,282.8052639000016,282.8052639000016,002,P022,2025_May_13_1705,ConditionRich,2021.2.3,59.942048028061,
252.0,255.75,38,0.75,Stimuli/P016/things_trumpet_08s.jpg,0,0,0.0,0,111,111,111,,,,,,,,,,,,,252.02403290000075,0.02403290000074776,None,,283.0554933999956,283.0554933999956,283.0554933999956,283.0554933999956,283.0554933999956,283.0554933999956,283.0554933999956,283.0554933999956,283.0554933999956,283.0554933999956,002,P022,2025_May_13_1705,ConditionRich,2021.2.3,59.942048028061,
255.75,256.0,41,0.0,Stimuli/Blank.png,0,0,0.0,0,112,112,112,,,,,,,,,,,,,255.77524300000368,0.025243000003683846,None,,286.7922002999985,286.7922002999985,286.7922002999985,286.7922002999985,286.7922002999985,286.7922002999985,286.7922002999985,286.7922002999985,286.7922002999985,286.7922002999985,002,P022,2025_May_13_1705,ConditionRich,2021.2.3,59.942048028061,
256.0,259.75,9,0.75,Stimuli/P016/sun_bbdgftzhpkaklkll.jpg,0,0,0.0,0,113,113,113,,,,,,,,,,,,,256.00863790000585,0.008637900005851407,None,,287.0256775000016,287.0256775000016,287.0256775000016,287.0256775000016,287.0256775000016,287.0256775000016,287.0256775000016,287.0256775000016,287.0256775000016,287.0256775000016,002,P022,2025_May_13_1705,ConditionRich,2021.2.3,59.942048028061,
259.75,260.0,41,0.0,Stimuli/Blank.png,0,0,0.0,0,114,114,114,,,,,,,,,,,,,259.7640282000066,0.014028200006578118,None,,290.7956630999979,290.7956630999979,290.7956630999979,290.7956630999979,290.7956630999979,290.7956630999979,290.7956630999979,290.7956630999979,290.7956630999979,290.7956630999979,002,P022,2025_May_13_1705,ConditionRich,2021.2.3,59.942048028061,
260.0,263.75,30,0.75,Stimuli/P016/things_ottoman_08s.jpg,1,0,0.75,0,115,115,115,,,,,,,,,,,,,260.02913550000085,0.02913550000084797,1,0.4585642000020016,291.0458887999994,291.0458887999994,291.0458887999994,291.0458887999994,291.0458887999994,291.0458887999994,291.0458887999994,291.7798634999999,291.0458887999994,291.0458887999994,002,P022,2025_May_13_1705,ConditionRich,2021.2.3,59.942048028061,
263.75,264.0,41,0.0,Stimuli/Blank.png,0,0,0.0,0,116,116,116,,,,,,,,,,,,,263.7483485000048,-0.0016514999952050857,None,,294.7658353000006,294.7658353000006,294.7658353000006,294.7658353000006,294.7658353000006,294.7658353000006,294.7658353000006,294.7658353000006,294.7658353000006,294.7658353000006,002,P022,2025_May_13_1705,ConditionRich,2021.2.3,59.942048028061,
264.0,267.75,7,0.75,Stimuli/P016/sun_aqdfrmtvewaapuqs.jpg,0,0,0.0,0,117,117,117,,,,,,,,,,,,,264.01814330000343,0.01814330000343034,None,,295.0494686999955,295.0494686999955,295.0494686999955,295.0494686999955,295.0494686999955,295.0494686999955,295.0494686999955,295.0494686999955,295.0494686999955,295.0494686999955,002,P022,2025_May_13_1705,ConditionRich,2021.2.3,59.942048028061,
267.75,268.0,41,0.0,Stimuli/Blank.png,0,0,0.0,0,118,118,118,,,,,,,,,,,,,267.76846430000296,0.018464300002960954,None,,298.7860666999986,298.7860666999986,298.7860666999986,298.7860666999986,298.7860666999986,298.7860666999986,298.7860666999986,298.7860666999986,298.7860666999986,298.7860666999986,002,P022,2025_May_13_1705,ConditionRich,2021.2.3,59.942048028061,
268.0,271.75,21,0.75,Stimuli/P016/things_arch_08s.jpg,1,2,2.75,0,119,119,119,,,,,,,,,,,,,268.0034289000032,0.003428900003200397,1,2.426454200001899,299.03631499999756,299.03631499999756,299.03631499999756,299.03631499999756,299.03631499999756,299.03631499999756,301.0046954999998,301.75534640000114,299.03631499999756,299.03631499999756,002,P022,2025_May_13_1705,ConditionRich,2021.2.3,59.942048028061,
271.75,272.0,41,0.0,Stimuli/Blank.png,0,0,0.0,0,120,120,120,,,,,,,,,,,,,271.77221430000645,0.022214300006453414,None,,302.789595299997,302.789595299997,302.789595299997,302.789595299997,302.789595299997,302.789595299997,302.789595299997,302.789595299997,302.789595299997,302.789595299997,002,P022,2025_May_13_1705,ConditionRich,2021.2.3,59.942048028061,
272.0,275.75,14,0.75,Stimuli/P016/sun_bpvmkbyglkraoxhh.jpg,0,0,0.0,0,121,121,121,,,,,,,,,,,,,272.0084569000028,0.008456900002784096,None,,303.03982059999544,303.03982059999544,303.03982059999544,303.03982059999544,303.03982059999544,303.03982059999544,303.03982059999544,303.03982059999544,303.03982059999544,303.03982059999544,002,P022,2025_May_13_1705,ConditionRich,2021.2.3,59.942048028061,
275.75,276.0,41,0.0,Stimuli/Blank.png,0,0,0.0,0,122,122,122,,,,,,,,,,,,,275.77713710000535,0.027137100005347747,None,,306.7931540999998,306.7931540999998,306.7931540999998,306.7931540999998,306.7931540999998,306.7931540999998,306.7931540999998,306.7931540999998,306.7931540999998,306.7931540999998,002,P022,2025_May_13_1705,ConditionRich,2021.2.3,59.942048028061,
276.0,292.0,0,0.0,Stimuli/Blank.png,1,9,9.75,0,123,123,123,,,,,,,,,,,,,276.0098399000053,0.009839900005317759,1,9.451793699998234,307.02668339999946,307.02668339999946,307.02668339999946,307.02668339999946,307.02668339999946,307.02668339999946,316.0179640999995,316.7686901999987,307.02668339999946,307.02668339999946,002,P022,2025_May_13_1705,ConditionRich,2021.2.3,59.942048028061,
292.0,295.75,20,0.75,Stimuli/P016/sun_bzmxulijbnmshodq.jpg,0,0,0.0,0,124,124,124,,,,,,,,,,,,,292.00725120000425,0.0072512000042479485,None,,323.0408393999969,323.0408393999969,323.0408393999969,323.0408393999969,323.0408393999969,323.0408393999969,323.0408393999969,323.0408393999969,323.0408393999969,323.0408393999969,002,P022,2025_May_13_1705,ConditionRich,2021.2.3,59.942048028061,
295.75,296.0,41,0.0,Stimuli/Blank.png,0,0,0.0,0,125,125,125,,,,,,,,,,,,,295.77719340000476,0.027193400004762225,None,,326.79416579999815,326.79416579999815,326.79416579999815,326.79416579999815,326.79416579999815,326.79416579999815,326.79416579999815,326.79416579999815,326.79416579999815,326.79416579999815,002,P022,2025_May_13_1705,ConditionRich,2021.2.3,59.942048028061,
296.0,299.75,4,0.75,Stimuli/P016/sun_aiwuqxdqzftsfyeg.jpg,0,0,0.0,0,126,126,126,,,,,,,,,,,,,296.0132126000026,0.01321260000258917,None,,327.0443817999985,327.0443817999985,327.0443817999985,327.0443817999985,327.0443817999985,327.0443817999985,327.0443817999985,327.0443817999985,327.0443817999985,327.0443817999985,002,P022,2025_May_13_1705,ConditionRich,2021.2.3,59.942048028061,
299.75,300.0,41,0.0,Stimuli/Blank.png,0,0,0.0,0,127,127,127,,,,,,,,,,,,,299.7634573000032,0.013457300003210548,None,,330.7810169000004,330.7810169000004,330.7810169000004,330.7810169000004,330.7810169000004,330.7810169000004,330.7810169000004,330.7810169000004,330.7810169000004,330.7810169000004,002,P022,2025_May_13_1705,ConditionRich,2021.2.3,59.942048028061,
300.0,303.75,10,0.75,Stimuli/P016/sun_bfojpvrlsrtfyzio.jpg,0,0,0.0,0,128,128,128,,,,,,,,,,,,,300.0140754000022,0.014075400002184324,None,,331.0312458999979,331.0312458999979,331.0312458999979,331.0312458999979,331.0312458999979,331.0312458999979,331.0312458999979,331.0312458999979,331.0312458999979,331.0312458999979,002,P022,2025_May_13_1705,ConditionRich,2021.2.3,59.942048028061,
303.75,304.0,41,0.0,Stimuli/Blank.png,0,0,0.0,0,129,129,129,,,,,,,,,,,,,303.7501668000041,0.00016680000408086926,None,,334.7678956999953,334.7678956999953,334.7678956999953,334.7678956999953,334.7678956999953,334.7678956999953,334.7678956999953,334.7678956999953,334.7678956999953,334.7678956999953,002,P022,2025_May_13_1705,ConditionRich,2021.2.3,59.942048028061,
304.0,307.75,33,0.75,Stimuli/P016/things_raccoon_08n.jpg,0,0,0.0,0,130,130,130,,,,,,,,,,,,,304.0039234000069,0.003923400006897282,None,,335.03478280000127,335.03478280000127,335.03478280000127,335.03478280000127,335.03478280000127,335.03478280000127,335.03478280000127,335.03478280000127,335.03478280000127,335.03478280000127,002,P022,2025_May_13_1705,ConditionRich,2021.2.3,59.942048028061,
307.75,308.0,41,0.0,Stimuli/Blank.png,0,0,0.0,0,131,131,131,,,,,,,,,,,,,307.77213390000543,0.022133900005428586,None,,338.7881139000019,338.7881139000019,338.7881139000019,338.7881139000019,338.7881139000019,338.7881139000019,338.7881139000019,338.7881139000019,338.7881139000019,338.7881139000019,002,P022,2025_May_13_1705,ConditionRich,2021.2.3,59.942048028061,
308.0,311.75,40,0.75,Stimuli/P016/things_woman_08s.jpg,1,2,2.75,0,132,132,132,,,,,,,,,,,,,308.0047410000043,0.0047410000042873435,1,2.575208599999314,339.0216292999976,339.0216292999976,339.0216292999976,339.0216292999976,339.0216292999976,339.0216292999976,341.0067249999993,341.7574386999986,339.0216292999976,339.0216292999976,002,P022,2025_May_13_1705,ConditionRich,2021.2.3,59.942048028061,
311.75,312.0,41,0.0,Stimuli/Blank.png,0,0,0.0,0,133,133,133,,,,,,,,,,,,,311.7585271000062,0.008527100006176624,None,,342.7750365999964,342.7750365999964,342.7750365999964,342.7750365999964,342.7750365999964,342.7750365999964,342.7750365999964,342.7750365999964,342.7750365999964,342.7750365999964,002,P022,2025_May_13_1705,ConditionRich,2021.2.3,59.942048028061,
312.0,315.75,32,0.75,Stimuli/P016/things_pheasant_08s.jpg,0,0,0.0,0,134,134,134,,,,,,,,,,,,,312.00849470000685,0.008494700006849598,None,,343.0251771999974,343.0251771999974,343.0251771999974,343.0251771999974,343.0251771999974,343.0251771999974,343.0251771999974,343.0251771999974,343.0251771999974,343.0251771999974,002,P022,2025_May_13_1705,ConditionRich,2021.2.3,59.942048028061,
315.75,316.0,41,0.0,Stimuli/Blank.png,0,0,0.0,0,135,135,135,,,,,,,,,,,,,315.7635978000035,0.013597800003481098,None,,346.79518349999853,346.79518349999853,346.79518349999853,346.79518349999853,346.79518349999853,346.79518349999853,346.79518349999853,346.79518349999853,346.79518349999853,346.79518349999853,002,P022,2025_May_13_1705,ConditionRich,2021.2.3,59.942048028061,
316.0,319.75,15,0.75,Stimuli/P016/sun_bvfcijehgdsndfbg.jpg,1,1,1.75,0,136,136,136,,,,,,,,,,,,,316.0278103000019,0.027810300001874566,1,1.4582930999968085,347.04539790000126,347.04539790000126,347.04539790000126,347.04539790000126,347.04539790000126,347.04539790000126,348.029601000002,348.7802712999983,347.04539790000126,347.04539790000126,002,P022,2025_May_13_1705,ConditionRich,2021.2.3,59.942048028061,
319.75,320.0,41,0.0,Stimuli/Blank.png,0,0,0.0,0,137,137,137,,,,,,,,,,,,,319.76520470000105,0.015204700001049787,None,,350.78211290000036,350.78211290000036,350.78211290000036,350.78211290000036,350.78211290000036,350.78211290000036,350.78211290000036,350.78211290000036,350.78211290000036,350.78211290000036,002,P022,2025_May_13_1705,ConditionRich,2021.2.3,59.942048028061,
320.0,323.75,3,0.75,Stimuli/P016/sun_aiogwnavezqxkzfg.jpg,0,0,0.0,0,138,138,138,,,,,,,,,,,,,320.0153797000021,0.015379700002085883,None,,351.0489435999989,351.0489435999989,351.0489435999989,351.0489435999989,351.0489435999989,351.0489435999989,351.0489435999989,351.0489435999989,351.0489435999989,351.0489435999989,002,P022,2025_May_13_1705,ConditionRich,2021.2.3,59.942048028061,
323.75,324.0,41,0.0,Stimuli/Blank.png,0,0,0.0,0,139,139,139,,,,,,,,,,,,,323.7700613000052,0.020061300005181693,None,,354.78558180000255,354.78558180000255,354.78558180000255,354.78558180000255,354.78558180000255,354.78558180000255,354.78558180000255,354.78558180000255,354.78558180000255,354.78558180000255,002,P022,2025_May_13_1705,ConditionRich,2021.2.3,59.942048028061,
324.0,327.75,24,0.75,Stimuli/P016/things_bunkbed_08s.jpg,0,0,0.0,0,140,140,140,,,,,,,,,,,,,324.0017028000002,0.001702800000202842,None,,355.019123099999,355.019123099999,355.019123099999,355.019123099999,355.019123099999,355.019123099999,355.019123099999,355.019123099999,355.019123099999,355.019123099999,002,P022,2025_May_13_1705,ConditionRich,2021.2.3,59.942048028061,
327.75,328.0,41,0.0,Stimuli/Blank.png,0,0,0.0,0,141,141,141,,,,,,,,,,,,,327.75549290000345,0.005492900003446266,None,,358.7725113999986,358.7725113999986,358.7725113999986,358.7725113999986,358.7725113999986,358.7725113999986,358.7725113999986,358.7725113999986,358.7725113999986,358.7725113999986,002,P022,2025_May_13_1705,ConditionRich,2021.2.3,59.942048028061,
328.0,331.75,28,0.75,Stimuli/P016/things_latte_08s.jpg,0,0,0.0,0,142,142,142,,,,,,,,,,,,,328.0057578000051,0.005757800005085301,None,,359.039326099999,359.039326099999,359.039326099999,359.039326099999,359.039326099999,359.039326099999,359.039326099999,359.039326099999,359.039326099999,359.039326099999,002,P022,2025_May_13_1705,ConditionRich,2021.2.3,59.942048028061,
331.75,332.0,41,0.0,Stimuli/Blank.png,0,0,0.0,0,143,143,143,,,,,,,,,,,,,331.7779821000004,0.027982100000372157,None,,362.8093673999974,362.8093673999974,362.8093673999974,362.8093673999974,362.8093673999974,362.8093673999974,362.8093673999974,362.8093673999974,362.8093673999974,362.8093673999974,002,P022,2025_May_13_1705,ConditionRich,2021.2.3,59.942048028061,
332.0,335.75,29,0.75,Stimuli/P016/things_mouse1_08s.jpg,0,0,0.0,0,144,144,144,,,,,,,,,,,,,332.0252158000003,0.02521580000029644,None,,363.05956739999965,363.05956739999965,363.05956739999965,363.05956739999965,363.05956739999965,363.05956739999965,363.05956739999965,363.05956739999965,363.05956739999965,363.05956739999965,002,P022,2025_May_13_1705,ConditionRich,2021.2.3,59.942048028061,
335.75,336.0,41,0.0,Stimuli/Blank.png,0,0,0.0,0,145,145,145,,,,,,,,,,,,,335.77933230000053,0.029332300000532996,None,,366.79618050000136,366.79618050000136,366.79618050000136,366.79618050000136,366.79618050000136,366.79618050000136,366.79618050000136,366.79618050000136,366.79618050000136,366.79618050000136,002,P022,2025_May_13_1705,ConditionRich,2021.2.3,59.942048028061,
336.0,339.75,6,0.75,Stimuli/P016/sun_akecfasimgpbqcnt.jpg,0,0,0.0,0,146,146,146,,,,,,,,,,,,,336.0123384000035,0.012338400003500283,None,,367.0297294999982,367.0297294999982,367.0297294999982,367.0297294999982,367.0297294999982,367.0297294999982,367.0297294999982,367.0297294999982,367.0297294999982,367.0297294999982,002,P022,2025_May_13_1705,ConditionRich,2021.2.3,59.942048028061,
339.75,340.0,41,0.0,Stimuli/Blank.png,0,0,0.0,0,147,147,147,,,,,,,,,,,,,339.76605190000555,0.016051900005550124,None,,370.78305649999675,370.78305649999675,370.78305649999675,370.78305649999675,370.78305649999675,370.78305649999675,370.78305649999675,370.78305649999675,370.78305649999675,370.78305649999675,002,P022,2025_May_13_1705,ConditionRich,2021.2.3,59.942048028061,
340.0,343.75,31,0.75,Stimuli/P016/things_outlet_08s.jpg,0,0,0.0,0,148,148,148,,,,,,,,,,,,,339.9992094000045,-0.0007905999955255538,None,,371.0165844000003,371.0165844000003,371.0165844000003,371.0165844000003,371.0165844000003,371.0165844000003,371.0165844000003,371.0165844000003,371.0165844000003,371.0165844000003,002,P022,2025_May_13_1705,ConditionRich,2021.2.3,59.942048028061,
343.75,344.0,41,0.0,Stimuli/Blank.png,0,0,0.0,0,149,149,149,,,,,,,,,,,,,343.7525630000018,0.002563000001828186,None,,374.76990999999543,374.76990999999543,374.76990999999543,374.76990999999543,374.76990999999543,374.76990999999543,374.76990999999543,374.76990999999543,374.76990999999543,374.76990999999543,002,P022,2025_May_13_1705,ConditionRich,2021.2.3,59.942048028061,
344.0,347.75,37,0.75,Stimuli/P016/things_swizzle_stick_08s.jpg,0,0,0.0,0,150,150,150,,,,,,,,,,,,,344.0032363000064,0.003236300006392412,None,,375.0201347999973,375.0201347999973,375.0201347999973,375.0201347999973,375.0201347999973,375.0201347999973,375.0201347999973,375.0201347999973,375.0201347999973,375.0201347999973,002,P022,2025_May_13_1705,ConditionRich,2021.2.3,59.942048028061,
347.75,348.0,41,0.0,Stimuli/Blank.png,0,0,0.0,0,151,151,151,,,,,,,,,,,,,347.75705700000253,0.007057000002532732,None,,378.77345459999924,378.77345459999924,378.77345459999924,378.77345459999924,378.77345459999924,378.77345459999924,378.77345459999924,378.77345459999924,378.77345459999924,378.77345459999924,002,P022,2025_May_13_1705,ConditionRich,2021.2.3,59.942048028061,
348.0,351.75,18,0.75,Stimuli/P016/sun_byavixgfuhzioilz.jpg,1,2,2.75,0,152,152,152,,,,,,,,,,,,,348.00902390000556,0.009023900005558971,1,2.4650439000033657,379.0404492000016,379.0404492000016,379.0404492000016,379.0404492000016,379.0404492000016,379.0404492000016,381.025441400001,381.77612959999533,379.0404492000016,379.0404492000016,002,P022,2025_May_13_1705,ConditionRich,2021.2.3,59.942048028061,
351.75,352.0,41,0.0,Stimuli/Blank.png,0,0,0.0,0,153,153,153,,,,,,,,,,,,,351.7765873000026,0.02658730000257492,None,,382.7937285000007,382.7937285000007,382.7937285000007,382.7937285000007,382.7937285000007,382.7937285000007,382.7937285000007,382.7937285000007,382.7937285000007,382.7937285000007,002,P022,2025_May_13_1705,ConditionRich,2021.2.3,59.942048028061,
352.0,355.75,13,0.75,Stimuli/P016/sun_bphvjnowixlryxot.jpg,1,2,2.75,0,154,154,154,,,,,,,,,,,,,352.010655200007,0.010655200007022358,1,2.4043479999963893,383.02720209999825,383.02720209999825,383.02720209999825,383.02720209999825,383.02720209999825,383.02720209999825,385.01229779999994,385.7796281999981,383.02720209999825,383.02720209999825,002,P022,2025_May_13_1705,ConditionRich,2021.2.3,59.942048028061,
355.75,356.0,41,0.0,Stimuli/Blank.png,0,0,0.0,0,155,155,155,,,,,,,,,,,,,355.76370310000493,0.013703100004931912,None,,386.78052699999535,386.78052699999535,386.78052699999535,386.78052699999535,386.78052699999535,386.78052699999535,386.78052699999535,386.78052699999535,386.78052699999535,386.78052699999535,002,P022,2025_May_13_1705,ConditionRich,2021.2.3,59.942048028061,
356.0,359.75,36,0.75,Stimuli/P016/things_streetlight_08s.jpg,0,0,0.0,0,156,156,156,,,,,,,,,,,,,356.01324150000437,0.0132415000043693,None,,387.0307479999974,387.0307479999974,387.0307479999974,387.0307479999974,387.0307479999974,387.0307479999974,387.0307479999974,387.0307479999974,387.0307479999974,387.0307479999974,002,P022,2025_May_13_1705,ConditionRich,2021.2.3,59.942048028061,
359.75,360.0,41,0.0,Stimuli/Blank.png,0,0,0.0,0,157,157,157,,,,,,,,,,,,,359.75049820000277,0.00049820000276668,None,,390.7674066999971,390.7674066999971,390.7674066999971,390.7674066999971,390.7674066999971,390.7674066999971,390.7674066999971,390.7674066999971,390.7674066999971,390.7674066999971,002,P022,2025_May_13_1705,ConditionRich,2021.2.3,59.942048028061,
360.0,363.75,22,0.75,Stimuli/P016/things_baby_08s.jpg,0,0,0.0,0,158,158,158,,,,,,,,,,,,,360.0005033000052,0.0005033000052208081,None,,391.0176019999999,391.0176019999999,391.0176019999999,391.0176019999999,391.0176019999999,391.0176019999999,391.0176019999999,391.0176019999999,391.0176019999999,391.0176019999999,002,P022,2025_May_13_1705,ConditionRich,2021.2.3,59.942048028061,
363.75,364.0,41,0.0,Stimuli/Blank.png,0,0,0.0,0,159,159,159,,,,,,,,,,,,,363.7539124000032,0.0039124000031733885,None,,394.77091500000097,394.77091500000097,394.77091500000097,394.77091500000097,394.77091500000097,394.77091500000097,394.77091500000097,394.77091500000097,394.77091500000097,394.77091500000097,002,P022,2025_May_13_1705,ConditionRich,2021.2.3,59.942048028061,
364.0,367.75,34,0.75,Stimuli/P016/things_shower_cap_08s.jpg,0,0,0.0,0,160,160,160,,,,,,,,,,,,,364.0035096000065,0.0035096000065095723,None,,395.0211452000003,395.0211452000003,395.0211452000003,395.0211452000003,395.0211452000003,395.0211452000003,395.0211452000003,395.0211452000003,395.0211452000003,395.0211452000003,002,P022,2025_May_13_1705,ConditionRich,2021.2.3,59.942048028061,
367.75,368.0,41,0.0,Stimuli/Blank.png,0,0,0.0,0,161,161,161,,,,,,,,,,,,,367.7577856000062,0.007785600006172899,None,,398.7744586999979,398.7744586999979,398.7744586999979,398.7744586999979,398.7744586999979,398.7744586999979,398.7744586999979,398.7744586999979,398.7744586999979,398.7744586999979,002,P022,2025_May_13_1705,ConditionRich,2021.2.3,59.942048028061,
368.0,371.75,39,0.75,Stimuli/P016/things_window_08s.jpg,0,0,0.0,0,162,162,162,,,,,,,,,,,,,368.0075539000027,0.007553900002676528,None,,399.0246920999998,399.0246920999998,399.0246920999998,399.0246920999998,399.0246920999998,399.0246920999998,399.0246920999998,399.0246920999998,399.0246920999998,399.0246920999998,002,P022,2025_May_13_1705,ConditionRich,2021.2.3,59.942048028061,
371.75,372.0,41,0.0,Stimuli/Blank.png,0,0,0.0,0,163,163,163,,,,,,,,,,,,,371.7632680000024,0.013268000002426561,None,,402.79468749999796,402.79468749999796,402.79468749999796,402.79468749999796,402.79468749999796,402.79468749999796,402.79468749999796,402.79468749999796,402.79468749999796,402.79468749999796,002,P022,2025_May_13_1705,ConditionRich,2021.2.3,59.942048028061,
372.0,388.0,0,0.0,Stimuli/Blank.png,1,3,3.75,0,164,164,164,,,,,,,,,,,,,372.02750560000277,0.027505600002768915,1,3.623629299996537,403.0449174000023,403.0449174000023,403.0449174000023,403.0449174000023,403.0449174000023,403.0449174000023,406.03085999999894,406.7815434000004,403.0449174000023,403.0449174000023,002,P022,2025_May_13_1705,ConditionRich,2021.2.3,59.942048028061,
