eventStartTime,eventEndTime,eventCond,imSize,imFile,responseEvent,fixRespStart,fixRespEnd,Events.thisRepN,Events.thisTrialN,Events.thisN,Events.thisIndex,Instructions.started,Instructions.stopped,participantReadyResponse.keys,participantReadyResponse.rt,participantReadyResponse.started,participantReadyResponse.stopped,startWaitforTrigger,triggerResponse.keys,triggerResponse.rt,triggerResponse.started,triggerResponse.stopped,globalTimer,actualStartTime,startTimingDiff,participantResponse.keys,participantResponse.started,participantResponse.stopped,image.started,image.stopped,fixationOutside.started,fixationOutside.stopped,fixationResponse.started,fixationResponse.stopped,fixationInside.started,fixationInside.stopped,participantResponse.rt,session,participant,date,expName,psychopyVersion,frameRate,
,,,,,,,,,,,,9.645339499998954,None,1,1.1136094000030425,9.645339499998954,None,,,,,,,,,,,,,,,,,,,,,008,P022,2025_May_13_1802,ConditionRich,2021.2.3,59.95466228377706,
,,,,,,,,,,,,,,,,,,10.773270099998626,5,13.87237009999808,10.786607300004107,None,,,,,,,,,,,,,,,,008,P022,2025_May_13_1802,ConditionRich,2021.2.3,59.95466228377706,
0.0,4.0,0,0.0,Stimuli/Blank.png,0,0,0.0,0,0,0,0,,,,,,,,,,,,24.668998900000588,0.04492179999942891,0.04492179999942891,None,24.73227559999941,None,24.73227559999941,None,24.73227559999941,None,24.73227559999941,24.73227559999941,24.73227559999941,None,,008,P022,2025_May_13_1802,ConditionRich,2021.2.3,59.95466228377706,
4.0,7.75,5,0.75,Stimuli/P016/sun_ajgmxbrxdpmsaext.jpg,1,0,0.75,0,1,1,1,,,,,,,,,,,,,4.023680400001467,0.023680400001467206,1,28.719540300000517,28.719540300000517,28.719540300000517,28.719540300000517,28.719540300000517,28.719540300000517,28.719540300000517,29.45311429999856,28.719540300000517,28.719540300000517,0.4855025999931968,008,P022,2025_May_13_1802,ConditionRich,2021.2.3,59.95466228377706,
7.75,8.0,41,0.0,Stimuli/Blank.png,0,0,0.0,0,2,2,2,,,,,,,,,,,,,7.772834199997305,0.022834199997305404,None,32.45618790000299,32.45618790000299,32.45618790000299,32.45618790000299,32.45618790000299,32.45618790000299,32.45618790000299,32.45618790000299,32.45618790000299,32.45618790000299,,008,P022,2025_May_13_1802,ConditionRich,2021.2.3,59.95466228377706,
8.0,11.75,18,0.75,Stimuli/P016/sun_byavixgfuhzioilz.jpg,0,0,0.0,0,3,3,3,,,,,,,,,,,,,8.006833300001745,0.006833300001744647,None,32.689305899999454,32.689305899999454,32.689305899999454,32.689305899999454,32.689305899999454,32.689305899999454,32.689305899999454,32.689305899999454,32.689305899999454,32.689305899999454,,008,P022,2025_May_13_1802,ConditionRich,2021.2.3,59.95466228377706,
11.75,12.0,41,0.0,Stimuli/Blank.png,0,0,0.0,0,4,4,4,,,,,,,,,,,,,11.761254299999564,0.011254299999563955,None,36.45933199999854,36.45933199999854,36.45933199999854,36.45933199999854,36.45933199999854,36.45933199999854,36.45933199999854,36.45933199999854,36.45933199999854,36.45933199999854,,008,P022,2025_May_13_1802,ConditionRich,2021.2.3,59.95466228377706,
12.0,15.75,11,0.75,Stimuli/P016/sun_bnwmcjuinqbdsbho.jpg,0,0,0.0,0,5,5,5,,,,,,,,,,,,,12.025962699997763,0.025962699997762684,None,36.70956200000364,36.70956200000364,36.70956200000364,36.70956200000364,36.70956200000364,36.70956200000364,36.70956200000364,36.70956200000364,36.70956200000364,36.70956200000364,,008,P022,2025_May_13_1802,ConditionRich,2021.2.3,59.95466228377706,
15.75,16.0,41,0.0,Stimuli/Blank.png,0,0,0.0,0,6,6,6,,,,,,,,,,,,,15.762804500001948,0.012804500001948327,None,40.44629400000122,40.44629400000122,40.44629400000122,40.44629400000122,40.44629400000122,40.44629400000122,40.44629400000122,40.44629400000122,40.44629400000122,40.44629400000122,,008,P022,2025_May_13_1802,ConditionRich,2021.2.3,59.95466228377706,
16.0,19.75,36,0.75,Stimuli/P016/things_streetlight_08s.jpg,0,0,0.0,0,7,7,7,,,,,,,,,,,,,16.013306200002262,0.013306200002261903,None,40.713249300002644,40.713249300002644,40.713249300002644,40.713249300002644,40.713249300002644,40.713249300002644,40.713249300002644,40.713249300002644,40.713249300002644,40.713249300002644,,008,P022,2025_May_13_1802,ConditionRich,2021.2.3,59.95466228377706,
19.75,20.0,41,0.0,Stimuli/Blank.png,0,0,0.0,0,8,8,8,,,,,,,,,,,,,19.76747890000115,0.017478900001151487,None,44.44997169999988,44.44997169999988,44.44997169999988,44.44997169999988,44.44997169999988,44.44997169999988,44.44997169999988,44.44997169999988,44.44997169999988,44.44997169999988,,008,P022,2025_May_13_1802,ConditionRich,2021.2.3,59.95466228377706,
20.0,23.75,25,0.75,Stimuli/P016/things_deer_08s.jpg,0,0,0.0,0,9,9,9,,,,,,,,,,,,,20.002929199996288,0.0029291999962879345,None,44.70020079999813,44.70020079999813,44.70020079999813,44.70020079999813,44.70020079999813,44.70020079999813,44.70020079999813,44.70020079999813,44.70020079999813,44.70020079999813,,008,P022,2025_May_13_1802,ConditionRich,2021.2.3,59.95466228377706,
23.75,24.0,41,0.0,Stimuli/Blank.png,0,0,0.0,0,10,10,10,,,,,,,,,,,,,23.771226800003205,0.021226800003205426,None,48.45367310000438,48.45367310000438,48.45367310000438,48.45367310000438,48.45367310000438,48.45367310000438,48.45367310000438,48.45367310000438,48.45367310000438,48.45367310000438,,008,P022,2025_May_13_1802,ConditionRich,2021.2.3,59.95466228377706,
24.0,27.75,23,0.75,Stimuli/P016/things_boy_08s.jpg,0,0,0.0,0,11,11,11,,,,,,,,,,,,,24.003503400002955,0.003503400002955459,None,48.68703529999766,48.68703529999766,48.68703529999766,48.68703529999766,48.68703529999766,48.68703529999766,48.68703529999766,48.68703529999766,48.68703529999766,48.68703529999766,,008,P022,2025_May_13_1802,ConditionRich,2021.2.3,59.95466228377706,
27.75,28.0,41,0.0,Stimuli/Blank.png,0,0,0.0,0,12,12,12,,,,,,,,,,,,,27.75675780000165,0.006757800001651049,None,52.440387100003136,52.440387100003136,52.440387100003136,52.440387100003136,52.440387100003136,52.440387100003136,52.440387100003136,52.440387100003136,52.440387100003136,52.440387100003136,,008,P022,2025_May_13_1802,ConditionRich,2021.2.3,59.95466228377706,
28.0,31.75,24,0.75,Stimuli/P016/things_bunkbed_08s.jpg,0,0,0.0,0,13,13,13,,,,,,,,,,,,,28.007859799996368,0.007859799996367656,None,52.690580900001805,52.690580900001805,52.690580900001805,52.690580900001805,52.690580900001805,52.690580900001805,52.690580900001805,52.690580900001805,52.690580900001805,52.690580900001805,,008,P022,2025_May_13_1802,ConditionRich,2021.2.3,59.95466228377706,
31.75,32.0,41,0.0,Stimuli/Blank.png,0,0,0.0,0,14,14,14,,,,,,,,,,,,,31.760965100002068,0.01096510000206763,None,56.44389950000186,56.44389950000186,56.44389950000186,56.44389950000186,56.44389950000186,56.44389950000186,56.44389950000186,56.44389950000186,56.44389950000186,56.44389950000186,,008,P022,2025_May_13_1802,ConditionRich,2021.2.3,59.95466228377706,
32.0,35.75,4,0.75,Stimuli/P016/sun_aiwuqxdqzftsfyeg.jpg,0,0,0.0,0,15,15,15,,,,,,,,,,,,,32.01154569999926,0.01154569999926025,None,56.694125499998336,56.694125499998336,56.694125499998336,56.694125499998336,56.694125499998336,56.694125499998336,56.694125499998336,56.694125499998336,56.694125499998336,56.694125499998336,,008,P022,2025_May_13_1802,ConditionRich,2021.2.3,59.95466228377706,
35.75,36.0,41,0.0,Stimuli/Blank.png,0,0,0.0,0,16,16,16,,,,,,,,,,,,,35.76476079999702,0.014760799997020513,None,60.44745060000423,60.44745060000423,60.44745060000423,60.44745060000423,60.44745060000423,60.44745060000423,60.44745060000423,60.44745060000423,60.44745060000423,60.44745060000423,,008,P022,2025_May_13_1802,ConditionRich,2021.2.3,59.95466228377706,
36.0,39.75,29,0.75,Stimuli/P016/things_mouse1_08s.jpg,0,0,0.0,0,17,17,17,,,,,,,,,,,,,36.01415190000262,0.014151900002616458,None,60.71435950000159,60.71435950000159,60.71435950000159,60.71435950000159,60.71435950000159,60.71435950000159,60.71435950000159,60.71435950000159,60.71435950000159,60.71435950000159,,008,P022,2025_May_13_1802,ConditionRich,2021.2.3,59.95466228377706,
39.75,40.0,41,0.0,Stimuli/Blank.png,0,0,0.0,0,18,18,18,,,,,,,,,,,,,39.768089999997756,0.018089999997755513,None,64.45099160000245,64.45099160000245,64.45099160000245,64.45099160000245,64.45099160000245,64.45099160000245,64.45099160000245,64.45099160000245,64.45099160000245,64.45099160000245,,008,P022,2025_May_13_1802,ConditionRich,2021.2.3,59.95466228377706,
40.0,43.75,39,0.75,Stimuli/P016/things_window_08s.jpg,0,0,0.0,0,19,19,19,,,,,,,,,,,,,40.002024399997026,0.002024399997026194,None,64.68448110000463,64.68448110000463,64.68448110000463,64.68448110000463,64.68448110000463,64.68448110000463,64.68448110000463,64.68448110000463,64.68448110000463,64.68448110000463,,008,P022,2025_May_13_1802,ConditionRich,2021.2.3,59.95466228377706,
43.75,44.0,41,0.0,Stimuli/Blank.png,0,0,0.0,0,20,20,20,,,,,,,,,,,,,43.7551078999968,0.0051078999968012795,None,68.43789090000064,68.43789090000064,68.43789090000064,68.43789090000064,68.43789090000064,68.43789090000064,68.43789090000064,68.43789090000064,68.43789090000064,68.43789090000064,,008,P022,2025_May_13_1802,ConditionRich,2021.2.3,59.95466228377706,
44.0,47.75,22,0.75,Stimuli/P016/things_baby_08s.jpg,0,0,0.0,0,21,21,21,,,,,,,,,,,,,44.00511640000332,0.005116400003316812,None,68.68806420000328,68.68806420000328,68.68806420000328,68.68806420000328,68.68806420000328,68.68806420000328,68.68806420000328,68.68806420000328,68.68806420000328,68.68806420000328,,008,P022,2025_May_13_1802,ConditionRich,2021.2.3,59.95466228377706,
47.75,48.0,41,0.0,Stimuli/Blank.png,0,0,0.0,0,22,22,22,,,,,,,,,,,,,47.75832999999693,0.008329999996931292,None,72.44139379999979,72.44139379999979,72.44139379999979,72.44139379999979,72.44139379999979,72.44139379999979,72.44139379999979,72.44139379999979,72.44139379999979,72.44139379999979,,008,P022,2025_May_13_1802,ConditionRich,2021.2.3,59.95466228377706,
48.0,51.75,14,0.75,Stimuli/P016/sun_bpvmkbyglkraoxhh.jpg,0,0,0.0,0,23,23,23,,,,,,,,,,,,,48.0080250999963,0.008025099996302743,None,72.69159159999981,72.69159159999981,72.69159159999981,72.69159159999981,72.69159159999981,72.69159159999981,72.69159159999981,72.69159159999981,72.69159159999981,72.69159159999981,,008,P022,2025_May_13_1802,ConditionRich,2021.2.3,59.95466228377706,
51.75,52.0,41,0.0,Stimuli/Blank.png,0,0,0.0,0,24,24,24,,,,,,,,,,,,,51.763558500002546,0.01355850000254577,None,76.46160400000372,76.46160400000372,76.46160400000372,76.46160400000372,76.46160400000372,76.46160400000372,76.46160400000372,76.46160400000372,76.46160400000372,76.46160400000372,,008,P022,2025_May_13_1802,ConditionRich,2021.2.3,59.95466228377706,
52.0,55.75,28,0.75,Stimuli/P016/things_latte_08s.jpg,1,3,3.75,0,25,25,25,,,,,,,,,,,,,52.02839680000034,0.028396800000336953,1,76.7285045000026,76.7285045000026,76.7285045000026,76.7285045000026,76.7285045000026,76.7285045000026,79.69783850000385,80.44847280000249,76.7285045000026,76.7285045000026,3.594612799999595,008,P022,2025_May_13_1802,ConditionRich,2021.2.3,59.95466228377706,
55.75,56.0,41,0.0,Stimuli/Blank.png,0,0,0.0,0,26,26,26,,,,,,,,,,,,,55.782618600002024,0.03261860000202432,None,80.46515100000397,80.46515100000397,80.46515100000397,80.46515100000397,80.46515100000397,80.46515100000397,80.46515100000397,80.46515100000397,80.46515100000397,80.46515100000397,,008,P022,2025_May_13_1802,ConditionRich,2021.2.3,59.95466228377706,
56.0,59.75,40,0.75,Stimuli/P016/things_woman_08s.jpg,0,0,0.0,0,27,27,27,,,,,,,,,,,,,55.998577500002284,-0.0014224999977159314,None,80.68196200000239,80.68196200000239,80.68196200000239,80.68196200000239,80.68196200000239,80.68196200000239,80.68196200000239,80.68196200000239,80.68196200000239,80.68196200000239,,008,P022,2025_May_13_1802,ConditionRich,2021.2.3,59.95466228377706,
59.75,60.0,41,0.0,Stimuli/Blank.png,0,0,0.0,0,28,28,28,,,,,,,,,,,,,59.75333949999913,0.0033394999991287477,None,84.43533300000126,84.43533300000126,84.43533300000126,84.43533300000126,84.43533300000126,84.43533300000126,84.43533300000126,84.43533300000126,84.43533300000126,84.43533300000126,,008,P022,2025_May_13_1802,ConditionRich,2021.2.3,59.95466228377706,
60.0,63.75,3,0.75,Stimuli/P016/sun_aiogwnavezqxkzfg.jpg,0,0,0.0,0,29,29,29,,,,,,,,,,,,,60.002080500002194,0.0020805000021937303,None,84.68574100000114,84.68574100000114,84.68574100000114,84.68574100000114,84.68574100000114,84.68574100000114,84.68574100000114,84.68574100000114,84.68574100000114,84.68574100000114,,008,P022,2025_May_13_1802,ConditionRich,2021.2.3,59.95466228377706,
63.75,64.0,41,0.0,Stimuli/Blank.png,0,0,0.0,0,30,30,30,,,,,,,,,,,,,63.75608430000284,0.006084300002839882,None,88.43886670000211,88.43886670000211,88.43886670000211,88.43886670000211,88.43886670000211,88.43886670000211,88.43886670000211,88.43886670000211,88.43886670000211,88.43886670000211,,008,P022,2025_May_13_1802,ConditionRich,2021.2.3,59.95466228377706,
64.0,67.75,10,0.75,Stimuli/P016/sun_bfojpvrlsrtfyzio.jpg,1,1,1.75,0,31,31,31,,,,,,,,,,,,,64.005496400001,0.005496400000993162,1,88.68907860000036,88.68907860000036,88.68907860000036,88.68907860000036,88.68907860000036,88.68907860000036,89.67331340000237,90.42394790000253,88.68907860000036,88.68907860000036,1.3590440999978455,008,P022,2025_May_13_1802,ConditionRich,2021.2.3,59.95466228377706,
67.75,68.0,41,0.0,Stimuli/Blank.png,0,0,0.0,0,32,32,32,,,,,,,,,,,,,67.75992289999704,0.009922899997036438,None,92.44242700000177,92.44242700000177,92.44242700000177,92.44242700000177,92.44242700000177,92.44242700000177,92.44242700000177,92.44242700000177,92.44242700000177,92.44242700000177,,008,P022,2025_May_13_1802,ConditionRich,2021.2.3,59.95466228377706,
68.0,71.75,1,0.75,Stimuli/P016/sun_aacpzgqrortyhyss.jpg,1,1,1.75,0,33,33,33,,,,,,,,,,,,,68.00988119999965,0.0098811999996542,1,92.7093554000021,92.7093554000021,92.7093554000021,92.7093554000021,92.7093554000021,92.7093554000021,93.67682420000347,94.4274893000038,92.7093554000021,92.7093554000021,1.4195218000022578,008,P022,2025_May_13_1802,ConditionRich,2021.2.3,59.95466228377706,
71.75,72.0,41,0.0,Stimuli/Blank.png,0,0,0.0,0,34,34,34,,,,,,,,,,,,,71.78153909999673,0.031539099996734876,None,96.47932020000007,96.47932020000007,96.47932020000007,96.47932020000007,96.47932020000007,96.47932020000007,96.47932020000007,96.47932020000007,96.47932020000007,96.47932020000007,,008,P022,2025_May_13_1802,ConditionRich,2021.2.3,59.95466228377706,
72.0,75.75,8,0.75,Stimuli/P016/sun_arldxotvfucvuudk.jpg,0,0,0.0,0,35,35,35,,,,,,,,,,,,,72.03140739999799,0.03140739999798825,None,96.72953250000137,96.72953250000137,96.72953250000137,96.72953250000137,96.72953250000137,96.72953250000137,96.72953250000137,96.72953250000137,96.72953250000137,96.72953250000137,,008,P022,2025_May_13_1802,ConditionRich,2021.2.3,59.95466228377706,
75.75,76.0,41,0.0,Stimuli/Blank.png,0,0,0.0,0,36,36,36,,,,,,,,,,,,,75.76690589999635,0.016905899996345397,None,100.44945749999897,100.44945749999897,100.44945749999897,100.44945749999897,100.44945749999897,100.44945749999897,100.44945749999897,100.44945749999897,100.44945749999897,100.44945749999897,,008,P022,2025_May_13_1802,ConditionRich,2021.2.3,59.95466228377706,
76.0,79.75,21,0.75,Stimuli/P016/things_arch_08s.jpg,0,0,0.0,0,37,37,37,,,,,,,,,,,,,76.00150430000213,0.0015043000021250919,None,100.69970540000213,100.69970540000213,100.69970540000213,100.69970540000213,100.69970540000213,100.69970540000213,100.69970540000213,100.69970540000213,100.69970540000213,100.69970540000213,,008,P022,2025_May_13_1802,ConditionRich,2021.2.3,59.95466228377706,
79.75,80.0,41,0.0,Stimuli/Blank.png,0,0,0.0,0,38,38,38,,,,,,,,,,,,,79.77137960000255,0.021379600002546795,None,104.46973689999868,104.46973689999868,104.46973689999868,104.46973689999868,104.46973689999868,104.46973689999868,104.46973689999868,104.46973689999868,104.46973689999868,104.46973689999868,,008,P022,2025_May_13_1802,ConditionRich,2021.2.3,59.95466228377706,
80.0,83.75,38,0.75,Stimuli/P016/things_trumpet_08s.jpg,1,1,1.75,0,39,39,39,,,,,,,,,,,,,80.020239700003,0.020239700003003236,1,104.70324830000027,104.70324830000027,104.70324830000027,104.70324830000027,104.70324830000027,104.70324830000027,105.68745560000389,106.4381108000016,104.70324830000027,104.70324830000027,1.4507136999964132,008,P022,2025_May_13_1802,ConditionRich,2021.2.3,59.95466228377706,
83.75,84.0,41,0.0,Stimuli/Blank.png,0,0,0.0,0,40,40,40,,,,,,,,,,,,,83.75701400000253,0.0070140000025276095,None,108.43988209999952,108.43988209999952,108.43988209999952,108.43988209999952,108.43988209999952,108.43988209999952,108.43988209999952,108.43988209999952,108.43988209999952,108.43988209999952,,008,P022,2025_May_13_1802,ConditionRich,2021.2.3,59.95466228377706,
84.0,100.0,0,0.0,Stimuli/Blank.png,1,3,3.75,0,41,41,41,,,,,,,,,,,,,84.00733819999732,0.007338199997320771,1,108.6901063999976,108.6901063999976,108.6901063999976,108.6901063999976,108.6901063999976,108.6901063999976,111.67612419999932,112.4267381000027,108.6901063999976,108.6901063999976,3.4317836000045645,008,P022,2025_May_13_1802,ConditionRich,2021.2.3,59.95466228377706,
100.0,103.75,15,0.75,Stimuli/P016/sun_bvfcijehgdsndfbg.jpg,0,0,0.0,0,42,42,42,,,,,,,,,,,,,100.00400390000141,0.004003900001407601,None,124.70426050000242,124.70426050000242,124.70426050000242,124.70426050000242,124.70426050000242,124.70426050000242,124.70426050000242,124.70426050000242,124.70426050000242,124.70426050000242,,008,P022,2025_May_13_1802,ConditionRich,2021.2.3,59.95466228377706,
103.75,104.0,41,0.0,Stimuli/Blank.png,0,0,0.0,0,43,43,43,,,,,,,,,,,,,103.77401490000193,0.024014900001930073,None,128.4575915000023,128.4575915000023,128.4575915000023,128.4575915000023,128.4575915000023,128.4575915000023,128.4575915000023,128.4575915000023,128.4575915000023,128.4575915000023,,008,P022,2025_May_13_1802,ConditionRich,2021.2.3,59.95466228377706,
104.0,107.75,6,0.75,Stimuli/P016/sun_akecfasimgpbqcnt.jpg,0,0,0.0,0,44,44,44,,,,,,,,,,,,,104.00840929999686,0.008409299996856134,None,128.69112670000322,128.69112670000322,128.69112670000322,128.69112670000322,128.69112670000322,128.69112670000322,128.69112670000322,128.69112670000322,128.69112670000322,128.69112670000322,,008,P022,2025_May_13_1802,ConditionRich,2021.2.3,59.95466228377706,
107.75,108.0,41,0.0,Stimuli/Blank.png,0,0,0.0,0,45,45,45,,,,,,,,,,,,,107.76167690000148,0.011676900001475587,None,132.44447750000108,132.44447750000108,132.44447750000108,132.44447750000108,132.44447750000108,132.44447750000108,132.44447750000108,132.44447750000108,132.44447750000108,132.44447750000108,,008,P022,2025_May_13_1802,ConditionRich,2021.2.3,59.95466228377706,
108.0,111.75,33,0.75,Stimuli/P016/things_raccoon_08n.jpg,1,3,3.75,0,46,46,46,,,,,,,,,,,,,108.01151309999841,0.011513099998410325,1,132.694662599999,132.694662599999,132.694662599999,132.694662599999,132.694662599999,132.694662599999,135.68068440000206,136.43138960000215,132.694662599999,132.694662599999,3.4933382000017446,008,P022,2025_May_13_1802,ConditionRich,2021.2.3,59.95466228377706,
111.75,112.0,41,0.0,Stimuli/Blank.png,0,0,0.0,0,47,47,47,,,,,,,,,,,,,111.76763090000168,0.01763090000167722,None,136.46468290000485,136.46468290000485,136.46468290000485,136.46468290000485,136.46468290000485,136.46468290000485,136.46468290000485,136.46468290000485,136.46468290000485,136.46468290000485,,008,P022,2025_May_13_1802,ConditionRich,2021.2.3,59.95466228377706,
112.0,115.75,2,0.75,Stimuli/P016/sun_agzfkftryitnqpxc.jpg,0,0,0.0,0,48,48,48,,,,,,,,,,,,,112.01501760000247,0.01501760000246577,None,136.6982080000016,136.6982080000016,136.6982080000016,136.6982080000016,136.6982080000016,136.6982080000016,136.6982080000016,136.6982080000016,136.6982080000016,136.6982080000016,,008,P022,2025_May_13_1802,ConditionRich,2021.2.3,59.95466228377706,
115.75,116.0,41,0.0,Stimuli/Blank.png,0,0,0.0,0,49,49,49,,,,,,,,,,,,,115.75191220000124,0.0019122000012430362,None,140.45155700000032,140.45155700000032,140.45155700000032,140.45155700000032,140.45155700000032,140.45155700000032,140.45155700000032,140.45155700000032,140.45155700000032,140.45155700000032,,008,P022,2025_May_13_1802,ConditionRich,2021.2.3,59.95466228377706,
116.0,119.75,32,0.75,Stimuli/P016/things_pheasant_08s.jpg,1,2,2.75,0,50,50,50,,,,,,,,,,,,,116.01860229999875,0.018602299998747185,1,140.70175390000077,140.70175390000077,140.70175390000077,140.70175390000077,140.70175390000077,140.70175390000077,142.68683350000356,143.43750710000313,140.70175390000077,140.70175390000077,2.4801500999965356,008,P022,2025_May_13_1802,ConditionRich,2021.2.3,59.95466228377706,
119.75,120.0,41,0.0,Stimuli/Blank.png,0,0,0.0,0,51,51,51,,,,,,,,,,,,,119.75767300000007,0.0076730000000679865,None,144.4550692000048,144.4550692000048,144.4550692000048,144.4550692000048,144.4550692000048,144.4550692000048,144.4550692000048,144.4550692000048,144.4550692000048,144.4550692000048,,008,P022,2025_May_13_1802,ConditionRich,2021.2.3,59.95466228377706,
120.0,123.75,12,0.75,Stimuli/P016/sun_boffixsnbbloarty.jpg,0,0,0.0,0,52,52,52,,,,,,,,,,,,,120.02270029999636,0.022700299996358808,None,144.70527289999882,144.70527289999882,144.70527289999882,144.70527289999882,144.70527289999882,144.70527289999882,144.70527289999882,144.70527289999882,144.70527289999882,144.70527289999882,,008,P022,2025_May_13_1802,ConditionRich,2021.2.3,59.95466228377706,
123.75,124.0,41,0.0,Stimuli/Blank.png,0,0,0.0,0,53,53,53,,,,,,,,,,,,,123.76143880000018,0.011438800000178162,None,148.45862699999998,148.45862699999998,148.45862699999998,148.45862699999998,148.45862699999998,148.45862699999998,148.45862699999998,148.45862699999998,148.45862699999998,148.45862699999998,,008,P022,2025_May_13_1802,ConditionRich,2021.2.3,59.95466228377706,
124.0,127.75,17,0.75,Stimuli/P016/sun_bxhbltvqnpaciuzt.jpg,0,0,0.0,0,54,54,54,,,,,,,,,,,,,124.02537049999955,0.02537049999955343,None,148.70882359999814,148.70882359999814,148.70882359999814,148.70882359999814,148.70882359999814,148.70882359999814,148.70882359999814,148.70882359999814,148.70882359999814,148.70882359999814,,008,P022,2025_May_13_1802,ConditionRich,2021.2.3,59.95466228377706,
127.75,128.0,41,0.0,Stimuli/Blank.png,0,0,0.0,0,55,55,55,,,,,,,,,,,,,127.76213350000035,0.01213350000034552,None,152.44546799999807,152.44546799999807,152.44546799999807,152.44546799999807,152.44546799999807,152.44546799999807,152.44546799999807,152.44546799999807,152.44546799999807,152.44546799999807,,008,P022,2025_May_13_1802,ConditionRich,2021.2.3,59.95466228377706,
128.0,131.75,37,0.75,Stimuli/P016/things_swizzle_stick_08s.jpg,0,0,0.0,0,56,56,56,,,,,,,,,,,,,128.01201910000236,0.012019100002362393,None,152.6956857999976,152.6956857999976,152.6956857999976,152.6956857999976,152.6956857999976,152.6956857999976,152.6956857999976,152.6956857999976,152.6956857999976,152.6956857999976,,008,P022,2025_May_13_1802,ConditionRich,2021.2.3,59.95466228377706,
131.75,132.0,41,0.0,Stimuli/Blank.png,0,0,0.0,0,57,57,57,,,,,,,,,,,,,131.76614379999955,0.016143799999554176,None,156.44902790000197,156.44902790000197,156.44902790000197,156.44902790000197,156.44902790000197,156.44902790000197,156.44902790000197,156.44902790000197,156.44902790000197,156.44902790000197,,008,P022,2025_May_13_1802,ConditionRich,2021.2.3,59.95466228377706,
132.0,135.75,35,0.75,Stimuli/P016/things_squid_08s.jpg,0,0,0.0,0,58,58,58,,,,,,,,,,,,,131.9991252999971,-0.0008747000028961338,None,156.69922090000182,156.69922090000182,156.69922090000182,156.69922090000182,156.69922090000182,156.69922090000182,156.69922090000182,156.69922090000182,156.69922090000182,156.69922090000182,,008,P022,2025_May_13_1802,ConditionRich,2021.2.3,59.95466228377706,
135.75,136.0,41,0.0,Stimuli/Blank.png,0,0,0.0,0,59,59,59,,,,,,,,,,,,,135.7720466000028,0.022046600002795458,None,160.46923080000124,160.46923080000124,160.46923080000124,160.46923080000124,160.46923080000124,160.46923080000124,160.46923080000124,160.46923080000124,160.46923080000124,160.46923080000124,,008,P022,2025_May_13_1802,ConditionRich,2021.2.3,59.95466228377706,
136.0,139.75,20,0.75,Stimuli/P016/sun_bzmxulijbnmshodq.jpg,1,3,3.75,0,60,60,60,,,,,,,,,,,,,136.0198659000016,0.01986590000160504,1,160.71944800000347,160.71944800000347,160.71944800000347,160.71944800000347,160.71944800000347,160.71944800000347,163.6887371999983,164.43940660000226,160.71944800000347,160.71944800000347,3.413536200001545,008,P022,2025_May_13_1802,ConditionRich,2021.2.3,59.95466228377706,
139.75,140.0,41,0.0,Stimuli/Blank.png,0,0,0.0,0,61,61,61,,,,,,,,,,,,,139.77265849999822,0.02265849999821512,None,164.45609279999917,164.45609279999917,164.45609279999917,164.45609279999917,164.45609279999917,164.45609279999917,164.45609279999917,164.45609279999917,164.45609279999917,164.45609279999917,,008,P022,2025_May_13_1802,ConditionRich,2021.2.3,59.95466228377706,
140.0,143.75,30,0.75,Stimuli/P016/things_ottoman_08s.jpg,0,0,0.0,0,62,62,62,,,,,,,,,,,,,140.00619880000158,0.006198800001584459,None,164.68961800000397,164.68961800000397,164.68961800000397,164.68961800000397,164.68961800000397,164.68961800000397,164.68961800000397,164.68961800000397,164.68961800000397,164.68961800000397,,008,P022,2025_May_13_1802,ConditionRich,2021.2.3,59.95466228377706,
143.75,144.0,41,0.0,Stimuli/Blank.png,0,0,0.0,0,63,63,63,,,,,,,,,,,,,143.7621386000028,0.012138600002799649,None,168.45964410000306,168.45964410000306,168.45964410000306,168.45964410000306,168.45964410000306,168.45964410000306,168.45964410000306,168.45964410000306,168.45964410000306,168.45964410000306,,008,P022,2025_May_13_1802,ConditionRich,2021.2.3,59.95466228377706,
144.0,147.75,34,0.75,Stimuli/P016/things_shower_cap_08s.jpg,0,0,0.0,0,64,64,64,,,,,,,,,,,,,144.02635510000255,0.02635510000254726,None,168.70984250000038,168.70984250000038,168.70984250000038,168.70984250000038,168.70984250000038,168.70984250000038,168.70984250000038,168.70984250000038,168.70984250000038,168.70984250000038,,008,P022,2025_May_13_1802,ConditionRich,2021.2.3,59.95466228377706,
147.75,148.0,41,0.0,Stimuli/Blank.png,0,0,0.0,0,65,65,65,,,,,,,,,,,,,147.76356990000204,0.013569900002039503,None,172.4464599999992,172.4464599999992,172.4464599999992,172.4464599999992,172.4464599999992,172.4464599999992,172.4464599999992,172.4464599999992,172.4464599999992,172.4464599999992,,008,P022,2025_May_13_1802,ConditionRich,2021.2.3,59.95466228377706,
148.0,151.75,27,0.75,Stimuli/P016/things_girl_08s.jpg,1,1,1.75,0,66,66,66,,,,,,,,,,,,,148.01440529999672,0.014405299996724352,1,172.69670520000363,172.69670520000363,172.69670520000363,172.69670520000363,172.69670520000363,172.69670520000363,173.680949900001,174.43156660000386,172.69670520000363,172.69670520000363,1.5375769000020227,008,P022,2025_May_13_1802,ConditionRich,2021.2.3,59.95466228377706,
151.75,152.0,41,0.0,Stimuli/Blank.png,0,0,0.0,0,67,67,67,,,,,,,,,,,,,151.75189970000065,0.001899700000649318,None,176.45003459999862,176.45003459999862,176.45003459999862,176.45003459999862,176.45003459999862,176.45003459999862,176.45003459999862,176.45003459999862,176.45003459999862,176.45003459999862,,008,P022,2025_May_13_1802,ConditionRich,2021.2.3,59.95466228377706,
152.0,155.75,7,0.75,Stimuli/P016/sun_aqdfrmtvewaapuqs.jpg,0,0,0.0,0,68,68,68,,,,,,,,,,,,,152.01702120000118,0.01702120000118157,None,176.70024070000363,176.70024070000363,176.70024070000363,176.70024070000363,176.70024070000363,176.70024070000363,176.70024070000363,176.70024070000363,176.70024070000363,176.70024070000363,,008,P022,2025_May_13_1802,ConditionRich,2021.2.3,59.95466228377706,
155.75,156.0,41,0.0,Stimuli/Blank.png,0,0,0.0,0,69,69,69,,,,,,,,,,,,,155.75328799999988,0.0032879999998840503,None,180.4368805999984,180.4368805999984,180.4368805999984,180.4368805999984,180.4368805999984,180.4368805999984,180.4368805999984,180.4368805999984,180.4368805999984,180.4368805999984,,008,P022,2025_May_13_1802,ConditionRich,2021.2.3,59.95466228377706,
156.0,159.75,16,0.75,Stimuli/P016/sun_bwhuwxazfqwuqhik.jpg,0,0,0.0,0,70,70,70,,,,,,,,,,,,,156.0042633999983,0.004263399998308159,None,180.7037874000016,180.7037874000016,180.7037874000016,180.7037874000016,180.7037874000016,180.7037874000016,180.7037874000016,180.7037874000016,180.7037874000016,180.7037874000016,,008,P022,2025_May_13_1802,ConditionRich,2021.2.3,59.95466228377706,
159.75,160.0,41,0.0,Stimuli/Blank.png,0,0,0.0,0,71,71,71,,,,,,,,,,,,,159.77378099999623,0.02378099999623373,None,184.45721649999905,184.45721649999905,184.45721649999905,184.45721649999905,184.45721649999905,184.45721649999905,184.45721649999905,184.45721649999905,184.45721649999905,184.45721649999905,,008,P022,2025_May_13_1802,ConditionRich,2021.2.3,59.95466228377706,
160.0,163.75,31,0.75,Stimuli/P016/things_outlet_08s.jpg,0,0,0.0,0,72,72,72,,,,,,,,,,,,,160.00771079999686,0.007710799996857531,None,184.69064010000147,184.69064010000147,184.69064010000147,184.69064010000147,184.69064010000147,184.69064010000147,184.69064010000147,184.69064010000147,184.69064010000147,184.69064010000147,,008,P022,2025_May_13_1802,ConditionRich,2021.2.3,59.95466228377706,
163.75,164.0,41,0.0,Stimuli/Blank.png,0,0,0.0,0,73,73,73,,,,,,,,,,,,,163.76200160000008,0.012001600000075996,None,188.44398080000246,188.44398080000246,188.44398080000246,188.44398080000246,188.44398080000246,188.44398080000246,188.44398080000246,188.44398080000246,188.44398080000246,188.44398080000246,,008,P022,2025_May_13_1802,ConditionRich,2021.2.3,59.95466228377706,
164.0,167.75,19,0.75,Stimuli/P016/sun_bzhwvgrzvttqoexa.jpg,0,0,0.0,0,74,74,74,,,,,,,,,,,,,164.01139500000136,0.011395000001357403,None,188.69419070000004,188.69419070000004,188.69419070000004,188.69419070000004,188.69419070000004,188.69419070000004,188.69419070000004,188.69419070000004,188.69419070000004,188.69419070000004,,008,P022,2025_May_13_1802,ConditionRich,2021.2.3,59.95466228377706,
167.75,168.0,41,0.0,Stimuli/Blank.png,0,0,0.0,0,75,75,75,,,,,,,,,,,,,167.76669550000224,0.016695500002242625,None,192.4641935000036,192.4641935000036,192.4641935000036,192.4641935000036,192.4641935000036,192.4641935000036,192.4641935000036,192.4641935000036,192.4641935000036,192.4641935000036,,008,P022,2025_May_13_1802,ConditionRich,2021.2.3,59.95466228377706,
168.0,171.75,9,0.75,Stimuli/P016/sun_bbdgftzhpkaklkll.jpg,0,0,0.0,0,76,76,76,,,,,,,,,,,,,168.01485700000194,0.014857000001939014,None,192.7144107999993,192.7144107999993,192.7144107999993,192.7144107999993,192.7144107999993,192.7144107999993,192.7144107999993,192.7144107999993,192.7144107999993,192.7144107999993,,008,P022,2025_May_13_1802,ConditionRich,2021.2.3,59.95466228377706,
171.75,172.0,41,0.0,Stimuli/Blank.png,0,0,0.0,0,77,77,77,,,,,,,,,,,,,171.76795909999782,0.017959099997824524,None,196.45104130000254,196.45104130000254,196.45104130000254,196.45104130000254,196.45104130000254,196.45104130000254,196.45104130000254,196.45104130000254,196.45104130000254,196.45104130000254,,008,P022,2025_May_13_1802,ConditionRich,2021.2.3,59.95466228377706,
172.0,175.75,13,0.75,Stimuli/P016/sun_bphvjnowixlryxot.jpg,0,0,0.0,0,78,78,78,,,,,,,,,,,,,172.00096170000324,0.0009617000032449141,None,196.68458480000118,196.68458480000118,196.68458480000118,196.68458480000118,196.68458480000118,196.68458480000118,196.68458480000118,196.68458480000118,196.68458480000118,196.68458480000118,,008,P022,2025_May_13_1802,ConditionRich,2021.2.3,59.95466228377706,
175.75,176.0,41,0.0,Stimuli/Blank.png,0,0,0.0,0,79,79,79,,,,,,,,,,,,,175.7549691000022,0.004969100002199411,None,200.43798070000048,200.43798070000048,200.43798070000048,200.43798070000048,200.43798070000048,200.43798070000048,200.43798070000048,200.43798070000048,200.43798070000048,200.43798070000048,,008,P022,2025_May_13_1802,ConditionRich,2021.2.3,59.95466228377706,
176.0,179.75,26,0.75,Stimuli/P016/things_face_08s.jpg,0,0,0.0,0,80,80,80,,,,,,,,,,,,,176.00501280000026,0.005012800000258721,None,200.68811350000033,200.68811350000033,200.68811350000033,200.68811350000033,200.68811350000033,200.68811350000033,200.68811350000033,200.68811350000033,200.68811350000033,200.68811350000033,,008,P022,2025_May_13_1802,ConditionRich,2021.2.3,59.95466228377706,
179.75,180.0,41,0.0,Stimuli/Blank.png,0,0,0.0,0,81,81,81,,,,,,,,,,,,,179.75813039999775,0.008130399997753557,None,204.44143830000394,204.44143830000394,204.44143830000394,204.44143830000394,204.44143830000394,204.44143830000394,204.44143830000394,204.44143830000394,204.44143830000394,204.44143830000394,,008,P022,2025_May_13_1802,ConditionRich,2021.2.3,59.95466228377706,
180.0,196.0,0,0.0,Stimuli/Blank.png,1,10,10.75,0,82,82,82,,,,,,,,,,,,,180.00902679999854,0.009026799998537172,1,204.70836309999868,204.70836309999868,204.70836309999868,204.70836309999868,204.70836309999868,204.70836309999868,214.68384080000396,215.4344947999998,204.70836309999868,204.70836309999868,10.447910499999125,008,P022,2025_May_13_1802,ConditionRich,2021.2.3,59.95466228377706,
196.0,199.75,21,0.75,Stimuli/P016/things_arch_08s.jpg,0,0,0.0,0,83,83,83,,,,,,,,,,,,,196.02303799999936,0.02303799999936018,None,220.70581640000455,220.70581640000455,220.70581640000455,220.70581640000455,220.70581640000455,220.70581640000455,220.70581640000455,220.70581640000455,220.70581640000455,220.70581640000455,,008,P022,2025_May_13_1802,ConditionRich,2021.2.3,59.95466228377706,
199.75,200.0,41,0.0,Stimuli/Blank.png,0,0,0.0,0,84,84,84,,,,,,,,,,,,,199.76170640000055,0.011706400000548456,None,224.4591661000013,224.4591661000013,224.4591661000013,224.4591661000013,224.4591661000013,224.4591661000013,224.4591661000013,224.4591661000013,224.4591661000013,224.4591661000013,,008,P022,2025_May_13_1802,ConditionRich,2021.2.3,59.95466228377706,
200.0,203.75,3,0.75,Stimuli/P016/sun_aiogwnavezqxkzfg.jpg,0,0,0.0,0,85,85,85,,,,,,,,,,,,,200.02665010000055,0.026650100000551902,None,224.72607509999943,224.72607509999943,224.72607509999943,224.72607509999943,224.72607509999943,224.72607509999943,224.72607509999943,224.72607509999943,224.72607509999943,224.72607509999943,,008,P022,2025_May_13_1802,ConditionRich,2021.2.3,59.95466228377706,
203.75,204.0,41,0.0,Stimuli/Blank.png,0,0,0.0,0,86,86,86,,,,,,,,,,,,,203.77913419999823,0.029134199998225085,None,228.46268930000224,228.46268930000224,228.46268930000224,228.46268930000224,228.46268930000224,228.46268930000224,228.46268930000224,228.46268930000224,228.46268930000224,228.46268930000224,,008,P022,2025_May_13_1802,ConditionRich,2021.2.3,59.95466228377706,
204.0,207.75,11,0.75,Stimuli/P016/sun_bnwmcjuinqbdsbho.jpg,0,0,0.0,0,87,87,87,,,,,,,,,,,,,204.01331560000108,0.013315600001078565,None,228.7129380999977,228.7129380999977,228.7129380999977,228.7129380999977,228.7129380999977,228.7129380999977,228.7129380999977,228.7129380999977,228.7129380999977,228.7129380999977,,008,P022,2025_May_13_1802,ConditionRich,2021.2.3,59.95466228377706,
207.75,208.0,41,0.0,Stimuli/Blank.png,0,0,0.0,0,88,88,88,,,,,,,,,,,,,207.76713619999646,0.017136199996457435,None,232.44954570000118,232.44954570000118,232.44954570000118,232.44954570000118,232.44954570000118,232.44954570000118,232.44954570000118,232.44954570000118,232.44954570000118,232.44954570000118,,008,P022,2025_May_13_1802,ConditionRich,2021.2.3,59.95466228377706,
208.0,211.75,20,0.75,Stimuli/P016/sun_bzmxulijbnmshodq.jpg,1,3,3.75,0,89,89,89,,,,,,,,,,,,,208.00169189999724,0.001691899997240398,None,232.6997601000039,232.6997601000039,232.6997601000039,232.6997601000039,232.6997601000039,232.6997601000039,235.68579630000022,236.4364418000041,232.6997601000039,232.6997601000039,,008,P022,2025_May_13_1802,ConditionRich,2021.2.3,59.95466228377706,
211.75,212.0,41,0.0,Stimuli/Blank.png,0,0,0.0,0,90,90,90,,,,,,,,,,,,,211.7716300999964,0.02163009999640053,1,236.4697675999996,236.4697675999996,236.4697675999996,236.4697675999996,236.4697675999996,236.4697675999996,236.4697675999996,236.4697675999996,236.4697675999996,236.4697675999996,0.03425240000069607,008,P022,2025_May_13_1802,ConditionRich,2021.2.3,59.95466228377706,
212.0,215.75,35,0.75,Stimuli/P016/things_squid_08s.jpg,0,0,0.0,0,91,91,91,,,,,,,,,,,,,212.02192659999855,0.021926599998550955,None,236.71998259999964,236.71998259999964,236.71998259999964,236.71998259999964,236.71998259999964,236.71998259999964,236.71998259999964,236.71998259999964,236.71998259999964,236.71998259999964,,008,P022,2025_May_13_1802,ConditionRich,2021.2.3,59.95466228377706,
215.75,216.0,41,0.0,Stimuli/Blank.png,0,0,0.0,0,92,92,92,,,,,,,,,,,,,215.77313850000064,0.023138500000641216,None,240.4566163999989,240.4566163999989,240.4566163999989,240.4566163999989,240.4566163999989,240.4566163999989,240.4566163999989,240.4566163999989,240.4566163999989,240.4566163999989,,008,P022,2025_May_13_1802,ConditionRich,2021.2.3,59.95466228377706,
216.0,219.75,12,0.75,Stimuli/P016/sun_boffixsnbbloarty.jpg,0,0,0.0,0,93,93,93,,,,,,,,,,,,,216.0080969999981,0.008096999998087995,None,240.70685020000383,240.70685020000383,240.70685020000383,240.70685020000383,240.70685020000383,240.70685020000383,240.70685020000383,240.70685020000383,240.70685020000383,240.70685020000383,,008,P022,2025_May_13_1802,ConditionRich,2021.2.3,59.95466228377706,
219.75,220.0,41,0.0,Stimuli/Blank.png,0,0,0.0,0,94,94,94,,,,,,,,,,,,,219.77817669999786,0.028176699997857213,None,244.46016770000278,244.46016770000278,244.46016770000278,244.46016770000278,244.46016770000278,244.46016770000278,244.46016770000278,244.46016770000278,244.46016770000278,244.46016770000278,,008,P022,2025_May_13_1802,ConditionRich,2021.2.3,59.95466228377706,
220.0,223.75,7,0.75,Stimuli/P016/sun_aqdfrmtvewaapuqs.jpg,0,0,0.0,0,95,95,95,,,,,,,,,,,,,220.01111839999794,0.011118399997940287,None,244.69370200000412,244.69370200000412,244.69370200000412,244.69370200000412,244.69370200000412,244.69370200000412,244.69370200000412,244.69370200000412,244.69370200000412,244.69370200000412,,008,P022,2025_May_13_1802,ConditionRich,2021.2.3,59.95466228377706,
223.75,224.0,41,0.0,Stimuli/Blank.png,0,0,0.0,0,96,96,96,,,,,,,,,,,,,223.76342869999644,0.013428699996438809,None,248.44701540000096,248.44701540000096,248.44701540000096,248.44701540000096,248.44701540000096,248.44701540000096,248.44701540000096,248.44701540000096,248.44701540000096,248.44701540000096,,008,P022,2025_May_13_1802,ConditionRich,2021.2.3,59.95466228377706,
224.0,227.75,5,0.75,Stimuli/P016/sun_ajgmxbrxdpmsaext.jpg,0,0,0.0,0,97,97,97,,,,,,,,,,,,,224.0167306000003,0.01673060000030091,None,248.71392639999976,248.71392639999976,248.71392639999976,248.71392639999976,248.71392639999976,248.71392639999976,248.71392639999976,248.71392639999976,248.71392639999976,248.71392639999976,,008,P022,2025_May_13_1802,ConditionRich,2021.2.3,59.95466228377706,
227.75,228.0,41,0.0,Stimuli/Blank.png,0,0,0.0,0,98,98,98,,,,,,,,,,,,,227.767348399997,0.017348399996990338,None,252.45055890000367,252.45055890000367,252.45055890000367,252.45055890000367,252.45055890000367,252.45055890000367,252.45055890000367,252.45055890000367,252.45055890000367,252.45055890000367,,008,P022,2025_May_13_1802,ConditionRich,2021.2.3,59.95466228377706,
228.0,231.75,13,0.75,Stimuli/P016/sun_bphvjnowixlryxot.jpg,1,0,0.75,0,99,99,99,,,,,,,,,,,,,228.0013409000021,0.0013409000021056272,1,252.68409059999976,252.68409059999976,252.68409059999976,252.68409059999976,252.68409059999976,252.68409059999976,252.68409059999976,253.4181024999998,252.68409059999976,252.68409059999976,0.6751084999996237,008,P022,2025_May_13_1802,ConditionRich,2021.2.3,59.95466228377706,
231.75,232.0,41,0.0,Stimuli/Blank.png,0,0,0.0,0,100,100,100,,,,,,,,,,,,,231.75387179999962,0.0038717999996151775,None,256.4374095000021,256.4374095000021,256.4374095000021,256.4374095000021,256.4374095000021,256.4374095000021,256.4374095000021,256.4374095000021,256.4374095000021,256.4374095000021,,008,P022,2025_May_13_1802,ConditionRich,2021.2.3,59.95466228377706,
232.0,235.75,39,0.75,Stimuli/P016/things_window_08s.jpg,1,1,1.75,0,101,101,101,,,,,,,,,,,,,232.0070227000033,0.007022700003290083,1,256.70432560000336,256.70432560000336,256.70432560000336,256.70432560000336,256.70432560000336,256.70432560000336,257.68851580000046,258.4391858000017,256.70432560000336,256.70432560000336,1.5060966999953962,008,P022,2025_May_13_1802,ConditionRich,2021.2.3,59.95466228377706,
235.75,236.0,41,0.0,Stimuli/Blank.png,0,0,0.0,0,102,102,102,,,,,,,,,,,,,235.77690469999652,0.02690469999652123,None,260.47432500000286,260.47432500000286,260.47432500000286,260.47432500000286,260.47432500000286,260.47432500000286,260.47432500000286,260.47432500000286,260.47432500000286,260.47432500000286,,008,P022,2025_May_13_1802,ConditionRich,2021.2.3,59.95466228377706,
236.0,239.75,37,0.75,Stimuli/P016/things_swizzle_stick_08s.jpg,0,0,0.0,0,103,103,103,,,,,,,,,,,,,236.02586300000257,0.025863000002573244,None,260.7078745000035,260.7078745000035,260.7078745000035,260.7078745000035,260.7078745000035,260.7078745000035,260.7078745000035,260.7078745000035,260.7078745000035,260.7078745000035,,008,P022,2025_May_13_1802,ConditionRich,2021.2.3,59.95466228377706,
239.75,240.0,41,0.0,Stimuli/Blank.png,0,0,0.0,0,104,104,104,,,,,,,,,,,,,239.76165310000215,0.011653100002149586,None,264.44450450000295,264.44450450000295,264.44450450000295,264.44450450000295,264.44450450000295,264.44450450000295,264.44450450000295,264.44450450000295,264.44450450000295,264.44450450000295,,008,P022,2025_May_13_1802,ConditionRich,2021.2.3,59.95466228377706,
240.0,243.75,24,0.75,Stimuli/P016/things_bunkbed_08s.jpg,0,0,0.0,0,105,105,105,,,,,,,,,,,,,240.01273239999864,0.012732399998640176,None,264.7114064999987,264.7114064999987,264.7114064999987,264.7114064999987,264.7114064999987,264.7114064999987,264.7114064999987,264.7114064999987,264.7114064999987,264.7114064999987,,008,P022,2025_May_13_1802,ConditionRich,2021.2.3,59.95466228377706,
243.75,244.0,41,0.0,Stimuli/Blank.png,0,0,0.0,0,106,106,106,,,,,,,,,,,,,243.76663980000012,0.016639800000120886,None,268.4647251999995,268.4647251999995,268.4647251999995,268.4647251999995,268.4647251999995,268.4647251999995,268.4647251999995,268.4647251999995,268.4647251999995,268.4647251999995,,008,P022,2025_May_13_1802,ConditionRich,2021.2.3,59.95466228377706,
244.0,247.75,34,0.75,Stimuli/P016/things_shower_cap_08s.jpg,0,0,0.0,0,107,107,107,,,,,,,,,,,,,244.01550490000227,0.015504900002270006,None,268.69826750000357,268.69826750000357,268.69826750000357,268.69826750000357,268.69826750000357,268.69826750000357,268.69826750000357,268.69826750000357,268.69826750000357,268.69826750000357,,008,P022,2025_May_13_1802,ConditionRich,2021.2.3,59.95466228377706,
247.75,248.0,41,0.0,Stimuli/Blank.png,0,0,0.0,0,108,108,108,,,,,,,,,,,,,247.7519850999961,0.0019850999960908666,None,272.43489370000316,272.43489370000316,272.43489370000316,272.43489370000316,272.43489370000316,272.43489370000316,272.43489370000316,272.43489370000316,272.43489370000316,272.43489370000316,,008,P022,2025_May_13_1802,ConditionRich,2021.2.3,59.95466228377706,
248.0,251.75,10,0.75,Stimuli/P016/sun_bfojpvrlsrtfyzio.jpg,0,0,0.0,0,109,109,109,,,,,,,,,,,,,248.00298109999858,0.0029810999985784292,None,272.7017976999996,272.7017976999996,272.7017976999996,272.7017976999996,272.7017976999996,272.7017976999996,272.7017976999996,272.7017976999996,272.7017976999996,272.7017976999996,,008,P022,2025_May_13_1802,ConditionRich,2021.2.3,59.95466228377706,
251.75,252.0,41,0.0,Stimuli/Blank.png,0,0,0.0,0,110,110,110,,,,,,,,,,,,,251.77158619999682,0.021586199996818323,None,276.455111700001,276.455111700001,276.455111700001,276.455111700001,276.455111700001,276.455111700001,276.455111700001,276.455111700001,276.455111700001,276.455111700001,,008,P022,2025_May_13_1802,ConditionRich,2021.2.3,59.95466228377706,
252.0,255.75,40,0.75,Stimuli/P016/things_woman_08s.jpg,0,0,0.0,0,111,111,111,,,,,,,,,,,,,252.00591500000155,0.005915000001550652,None,276.70533470000373,276.70533470000373,276.70533470000373,276.70533470000373,276.70533470000373,276.70533470000373,276.70533470000373,276.70533470000373,276.70533470000373,276.70533470000373,,008,P022,2025_May_13_1802,ConditionRich,2021.2.3,59.95466228377706,
255.75,256.0,41,0.0,Stimuli/Blank.png,0,0,0.0,0,112,112,112,,,,,,,,,,,,,255.7762189999994,0.026218999999400694,None,280.45866200000455,280.45866200000455,280.45866200000455,280.45866200000455,280.45866200000455,280.45866200000455,280.45866200000455,280.45866200000455,280.45866200000455,280.45866200000455,,008,P022,2025_May_13_1802,ConditionRich,2021.2.3,59.95466228377706,
256.0,259.75,17,0.75,Stimuli/P016/sun_bxhbltvqnpaciuzt.jpg,0,0,0.0,0,113,113,113,,,,,,,,,,,,,256.008805700003,0.008805700002994854,None,280.692200999998,280.692200999998,280.692200999998,280.692200999998,280.692200999998,280.692200999998,280.692200999998,280.692200999998,280.692200999998,280.692200999998,,008,P022,2025_May_13_1802,ConditionRich,2021.2.3,59.95466228377706,
259.75,260.0,41,0.0,Stimuli/Blank.png,0,0,0.0,0,114,114,114,,,,,,,,,,,,,259.76207740000245,0.012077400002453942,None,284.4454786999995,284.4454786999995,284.4454786999995,284.4454786999995,284.4454786999995,284.4454786999995,284.4454786999995,284.4454786999995,284.4454786999995,284.4454786999995,,008,P022,2025_May_13_1802,ConditionRich,2021.2.3,59.95466228377706,
260.0,263.75,14,0.75,Stimuli/P016/sun_bpvmkbyglkraoxhh.jpg,1,2,2.75,0,115,115,115,,,,,,,,,,,,,260.01221559999976,0.012215599999763072,1,284.69572889999836,284.69572889999836,284.69572889999836,284.69572889999836,284.69572889999836,284.69572889999836,286.68088200000057,287.43152610000107,284.69572889999836,284.69572889999836,2.488641000003554,008,P022,2025_May_13_1802,ConditionRich,2021.2.3,59.95466228377706,
263.75,264.0,41,0.0,Stimuli/Blank.png,0,0,0.0,0,116,116,116,,,,,,,,,,,,,263.76627369999915,0.01627369999914663,None,288.44905540000036,288.44905540000036,288.44905540000036,288.44905540000036,288.44905540000036,288.44905540000036,288.44905540000036,288.44905540000036,288.44905540000036,288.44905540000036,,008,P022,2025_May_13_1802,ConditionRich,2021.2.3,59.95466228377706,
264.0,267.75,2,0.75,Stimuli/P016/sun_agzfkftryitnqpxc.jpg,0,0,0.0,0,117,117,117,,,,,,,,,,,,,264.00211670000135,0.002116700001352001,None,288.6992855999997,288.6992855999997,288.6992855999997,288.6992855999997,288.6992855999997,288.6992855999997,288.6992855999997,288.6992855999997,288.6992855999997,288.6992855999997,,008,P022,2025_May_13_1802,ConditionRich,2021.2.3,59.95466228377706,
267.75,268.0,41,0.0,Stimuli/Blank.png,0,0,0.0,0,118,118,118,,,,,,,,,,,,,267.77137129999755,0.02137129999755416,None,292.46928460000345,292.46928460000345,292.46928460000345,292.46928460000345,292.46928460000345,292.46928460000345,292.46928460000345,292.46928460000345,292.46928460000345,292.46928460000345,,008,P022,2025_May_13_1802,ConditionRich,2021.2.3,59.95466228377706,
268.0,271.75,28,0.75,Stimuli/P016/things_latte_08s.jpg,1,0,0.75,0,119,119,119,,,,,,,,,,,,,268.0220418999961,0.02204189999611117,1,292.71950769999967,292.71950769999967,292.71950769999967,292.71950769999967,292.71950769999967,292.71950769999967,292.71950769999967,293.4535054000007,292.71950769999967,292.71950769999967,0.6317791000037687,008,P022,2025_May_13_1802,ConditionRich,2021.2.3,59.95466228377706,
271.75,272.0,41,0.0,Stimuli/Blank.png,0,0,0.0,0,120,120,120,,,,,,,,,,,,,271.7725550999967,0.022555099996679928,None,296.4561328999989,296.4561328999989,296.4561328999989,296.4561328999989,296.4561328999989,296.4561328999989,296.4561328999989,296.4561328999989,296.4561328999989,296.4561328999989,,008,P022,2025_May_13_1802,ConditionRich,2021.2.3,59.95466228377706,
272.0,275.75,16,0.75,Stimuli/P016/sun_bwhuwxazfqwuqhik.jpg,0,0,0.0,0,121,121,121,,,,,,,,,,,,,272.0072891000018,0.007289100001798943,None,296.70637230000284,296.70637230000284,296.70637230000284,296.70637230000284,296.70637230000284,296.70637230000284,296.70637230000284,296.70637230000284,296.70637230000284,296.70637230000284,,008,P022,2025_May_13_1802,ConditionRich,2021.2.3,59.95466228377706,
275.75,276.0,41,0.0,Stimuli/Blank.png,0,0,0.0,0,122,122,122,,,,,,,,,,,,,275.7761352000016,0.02613520000159042,None,300.45968240000366,300.45968240000366,300.45968240000366,300.45968240000366,300.45968240000366,300.45968240000366,300.45968240000366,300.45968240000366,300.45968240000366,300.45968240000366,,008,P022,2025_May_13_1802,ConditionRich,2021.2.3,59.95466228377706,
276.0,292.0,0,0.0,Stimuli/Blank.png,1,5,5.75,0,123,123,123,,,,,,,,,,,,,276.01110719999997,0.011107199999969453,1,300.6932151000001,300.6932151000001,300.6932151000001,300.6932151000001,300.6932151000001,300.6932151000001,305.6810162000038,306.4316162000032,300.6932151000001,300.6932151000001,5.511908400003449,008,P022,2025_May_13_1802,ConditionRich,2021.2.3,59.95466228377706,
292.0,295.75,4,0.75,Stimuli/P016/sun_aiwuqxdqzftsfyeg.jpg,0,0,0.0,0,124,124,124,,,,,,,,,,,,,292.0077500999978,0.007750099997792859,None,316.6906885999997,316.6906885999997,316.6906885999997,316.6906885999997,316.6906885999997,316.6906885999997,316.6906885999997,316.6906885999997,316.6906885999997,316.6906885999997,,008,P022,2025_May_13_1802,ConditionRich,2021.2.3,59.95466228377706,
295.75,296.0,41,0.0,Stimuli/Blank.png,0,0,0.0,0,125,125,125,,,,,,,,,,,,,295.7613263000021,0.011326300002110656,None,320.4441919000019,320.4441919000019,320.4441919000019,320.4441919000019,320.4441919000019,320.4441919000019,320.4441919000019,320.4441919000019,320.4441919000019,320.4441919000019,,008,P022,2025_May_13_1802,ConditionRich,2021.2.3,59.95466228377706,
296.0,299.75,18,0.75,Stimuli/P016/sun_byavixgfuhzioilz.jpg,0,0,0.0,0,126,126,126,,,,,,,,,,,,,296.0113119000016,0.011311900001601316,None,320.71091239999805,320.71091239999805,320.71091239999805,320.71091239999805,320.71091239999805,320.71091239999805,320.71091239999805,320.71091239999805,320.71091239999805,320.71091239999805,,008,P022,2025_May_13_1802,ConditionRich,2021.2.3,59.95466228377706,
299.75,300.0,41,0.0,Stimuli/Blank.png,0,0,0.0,0,127,127,127,,,,,,,,,,,,,299.78133140000136,0.03133140000136336,None,324.46422750000056,324.46422750000056,324.46422750000056,324.46422750000056,324.46422750000056,324.46422750000056,324.46422750000056,324.46422750000056,324.46422750000056,324.46422750000056,,008,P022,2025_May_13_1802,ConditionRich,2021.2.3,59.95466228377706,
300.0,303.75,8,0.75,Stimuli/P016/sun_arldxotvfucvuudk.jpg,0,0,0.0,0,128,128,128,,,,,,,,,,,,,300.01512679999723,0.01512679999723332,None,324.6977736999979,324.6977736999979,324.6977736999979,324.6977736999979,324.6977736999979,324.6977736999979,324.6977736999979,324.6977736999979,324.6977736999979,324.6977736999979,,008,P022,2025_May_13_1802,ConditionRich,2021.2.3,59.95466228377706,
303.75,304.0,41,0.0,Stimuli/Blank.png,0,0,0.0,0,129,129,129,,,,,,,,,,,,,303.7508919999964,0.0008919999963836744,None,328.43441700000403,328.43441700000403,328.43441700000403,328.43441700000403,328.43441700000403,328.43441700000403,328.43441700000403,328.43441700000403,328.43441700000403,328.43441700000403,,008,P022,2025_May_13_1802,ConditionRich,2021.2.3,59.95466228377706,
304.0,307.75,22,0.75,Stimuli/P016/things_baby_08s.jpg,0,0,0.0,0,130,130,130,,,,,,,,,,,,,304.00231289999647,0.0023128999964683317,None,328.70130600000266,328.70130600000266,328.70130600000266,328.70130600000266,328.70130600000266,328.70130600000266,328.70130600000266,328.70130600000266,328.70130600000266,328.70130600000266,,008,P022,2025_May_13_1802,ConditionRich,2021.2.3,59.95466228377706,
307.75,308.0,41,0.0,Stimuli/Blank.png,0,0,0.0,0,131,131,131,,,,,,,,,,,,,307.771370399998,0.021370399997977074,None,332.45467140000255,332.45467140000255,332.45467140000255,332.45467140000255,332.45467140000255,332.45467140000255,332.45467140000255,332.45467140000255,332.45467140000255,332.45467140000255,,008,P022,2025_May_13_1802,ConditionRich,2021.2.3,59.95466228377706,
308.0,311.75,33,0.75,Stimuli/P016/things_raccoon_08n.jpg,1,0,0.75,0,132,132,132,,,,,,,,,,,,,308.0062440999973,0.006244099997275043,1,332.70487259999936,332.70487259999936,332.70487259999936,332.70487259999936,332.70487259999936,332.70487259999936,332.70487259999936,333.43879890000244,332.70487259999936,332.70487259999936,0.5232084000017494,008,P022,2025_May_13_1802,ConditionRich,2021.2.3,59.95466228377706,
311.75,312.0,41,0.0,Stimuli/Blank.png,0,0,0.0,0,133,133,133,,,,,,,,,,,,,311.77769799999805,0.027697999998054,None,336.47491840000293,336.47491840000293,336.47491840000293,336.47491840000293,336.47491840000293,336.47491840000293,336.47491840000293,336.47491840000293,336.47491840000293,336.47491840000293,,008,P022,2025_May_13_1802,ConditionRich,2021.2.3,59.95466228377706,
312.0,315.75,27,0.75,Stimuli/P016/things_girl_08s.jpg,1,2,2.75,0,134,134,134,,,,,,,,,,,,,312.0275063000008,0.027506300000823103,1,336.7250705999977,336.7250705999977,336.7250705999977,336.7250705999977,336.7250705999977,336.7250705999977,338.71021689999907,339.4609047999984,336.7250705999977,336.7250705999977,2.638300499995239,008,P022,2025_May_13_1802,ConditionRich,2021.2.3,59.95466228377706,
315.75,316.0,41,0.0,Stimuli/Blank.png,0,0,0.0,0,135,135,135,,,,,,,,,,,,,315.77808679999725,0.028086799997254275,None,340.4617140000046,340.4617140000046,340.4617140000046,340.4617140000046,340.4617140000046,340.4617140000046,340.4617140000046,340.4617140000046,340.4617140000046,340.4617140000046,,008,P022,2025_May_13_1802,ConditionRich,2021.2.3,59.95466228377706,
316.0,319.75,6,0.75,Stimuli/P016/sun_akecfasimgpbqcnt.jpg,0,0,0.0,0,136,136,136,,,,,,,,,,,,,316.0117937000032,0.011793700003181584,None,340.69523769999796,340.69523769999796,340.69523769999796,340.69523769999796,340.69523769999796,340.69523769999796,340.69523769999796,340.69523769999796,340.69523769999796,340.69523769999796,,008,P022,2025_May_13_1802,ConditionRich,2021.2.3,59.95466228377706,
319.75,320.0,41,0.0,Stimuli/Blank.png,0,0,0.0,0,137,137,137,,,,,,,,,,,,,319.76716119999764,0.01716119999764487,None,344.4485977000004,344.4485977000004,344.4485977000004,344.4485977000004,344.4485977000004,344.4485977000004,344.4485977000004,344.4485977000004,344.4485977000004,344.4485977000004,,008,P022,2025_May_13_1802,ConditionRich,2021.2.3,59.95466228377706,
320.0,323.75,30,0.75,Stimuli/P016/things_ottoman_08s.jpg,0,0,0.0,0,138,138,138,,,,,,,,,,,,,319.99846850000176,-0.0015314999982365407,None,344.6820985000013,344.6820985000013,344.6820985000013,344.6820985000013,344.6820985000013,344.6820985000013,344.6820985000013,344.6820985000013,344.6820985000013,344.6820985000013,,008,P022,2025_May_13_1802,ConditionRich,2021.2.3,59.95466228377706,
323.75,324.0,41,0.0,Stimuli/Blank.png,0,0,0.0,0,139,139,139,,,,,,,,,,,,,323.7519356999983,0.00193569999828469,None,348.4354181000017,348.4354181000017,348.4354181000017,348.4354181000017,348.4354181000017,348.4354181000017,348.4354181000017,348.4354181000017,348.4354181000017,348.4354181000017,,008,P022,2025_May_13_1802,ConditionRich,2021.2.3,59.95466228377706,
324.0,327.75,19,0.75,Stimuli/P016/sun_bzhwvgrzvttqoexa.jpg,1,3,3.75,0,140,140,140,,,,,,,,,,,,,324.00226790000306,0.0022679000030620955,1,348.68563770000037,348.68563770000037,348.68563770000037,348.68563770000037,348.68563770000037,348.68563770000037,351.67161099999794,352.4222765000013,348.68563770000037,348.68563770000037,3.404442300001392,008,P022,2025_May_13_1802,ConditionRich,2021.2.3,59.95466228377706,
327.75,328.0,41,0.0,Stimuli/Blank.png,0,0,0.0,0,141,141,141,,,,,,,,,,,,,327.75540660000115,0.0054066000011516735,None,352.43896680000034,352.43896680000034,352.43896680000034,352.43896680000034,352.43896680000034,352.43896680000034,352.43896680000034,352.43896680000034,352.43896680000034,352.43896680000034,,008,P022,2025_May_13_1802,ConditionRich,2021.2.3,59.95466228377706,
328.0,331.75,36,0.75,Stimuli/P016/things_streetlight_08s.jpg,0,0,0.0,0,142,142,142,,,,,,,,,,,,,328.00588830000197,0.005888300001970492,None,352.6891848000014,352.6891848000014,352.6891848000014,352.6891848000014,352.6891848000014,352.6891848000014,352.6891848000014,352.6891848000014,352.6891848000014,352.6891848000014,,008,P022,2025_May_13_1802,ConditionRich,2021.2.3,59.95466228377706,
331.75,332.0,41,0.0,Stimuli/Blank.png,0,0,0.0,0,143,143,143,,,,,,,,,,,,,331.76142450000043,0.011424500000430271,None,356.4591900000014,356.4591900000014,356.4591900000014,356.4591900000014,356.4591900000014,356.4591900000014,356.4591900000014,356.4591900000014,356.4591900000014,356.4591900000014,,008,P022,2025_May_13_1802,ConditionRich,2021.2.3,59.95466228377706,
332.0,335.75,31,0.75,Stimuli/P016/things_outlet_08s.jpg,0,0,0.0,0,144,144,144,,,,,,,,,,,,,332.0283167000016,0.028316700001596473,None,356.7262561000025,356.7262561000025,356.7262561000025,356.7262561000025,356.7262561000025,356.7262561000025,356.7262561000025,356.7262561000025,356.7262561000025,356.7262561000025,,008,P022,2025_May_13_1802,ConditionRich,2021.2.3,59.95466228377706,
335.75,336.0,41,0.0,Stimuli/Blank.png,0,0,0.0,0,145,145,145,,,,,,,,,,,,,335.7798944000024,0.029894400002376642,None,360.46273669999937,360.46273669999937,360.46273669999937,360.46273669999937,360.46273669999937,360.46273669999937,360.46273669999937,360.46273669999937,360.46273669999937,360.46273669999937,,008,P022,2025_May_13_1802,ConditionRich,2021.2.3,59.95466228377706,
336.0,339.75,1,0.75,Stimuli/P016/sun_aacpzgqrortyhyss.jpg,0,0,0.0,0,146,146,146,,,,,,,,,,,,,336.01282589999755,0.01282589999755146,None,360.69628750000265,360.69628750000265,360.69628750000265,360.69628750000265,360.69628750000265,360.69628750000265,360.69628750000265,360.69628750000265,360.69628750000265,360.69628750000265,,008,P022,2025_May_13_1802,ConditionRich,2021.2.3,59.95466228377706,
339.75,340.0,41,0.0,Stimuli/Blank.png,0,0,0.0,0,147,147,147,,,,,,,,,,,,,339.7500552999991,5.529999907594174e-05,None,364.43298979999963,364.43298979999963,364.43298979999963,364.43298979999963,364.43298979999963,364.43298979999963,364.43298979999963,364.43298979999963,364.43298979999963,364.43298979999963,,008,P022,2025_May_13_1802,ConditionRich,2021.2.3,59.95466228377706,
340.0,343.75,15,0.75,Stimuli/P016/sun_bvfcijehgdsndfbg.jpg,1,1,1.75,0,148,148,148,,,,,,,,,,,,,340.0003387999968,0.00033879999682540074,1,364.6831147999983,364.6831147999983,364.6831147999983,364.6831147999983,364.6831147999983,364.6831147999983,365.66736690000107,366.4180372000046,364.6831147999983,364.6831147999983,1.704012199996214,008,P022,2025_May_13_1802,ConditionRich,2021.2.3,59.95466228377706,
343.75,344.0,41,0.0,Stimuli/Blank.png,0,0,0.0,0,149,149,149,,,,,,,,,,,,,343.7528605999978,0.0028605999978026375,None,368.43643890000385,368.43643890000385,368.43643890000385,368.43643890000385,368.43643890000385,368.43643890000385,368.43643890000385,368.43643890000385,368.43643890000385,368.43643890000385,,008,P022,2025_May_13_1802,ConditionRich,2021.2.3,59.95466228377706,
344.0,347.75,26,0.75,Stimuli/P016/things_face_08s.jpg,0,0,0.0,0,150,150,150,,,,,,,,,,,,,344.0032078000004,0.0032078000003821217,None,368.6866635000042,368.6866635000042,368.6866635000042,368.6866635000042,368.6866635000042,368.6866635000042,368.6866635000042,368.6866635000042,368.6866635000042,368.6866635000042,,008,P022,2025_May_13_1802,ConditionRich,2021.2.3,59.95466228377706,
347.75,348.0,41,0.0,Stimuli/Blank.png,0,0,0.0,0,151,151,151,,,,,,,,,,,,,347.75643149999814,0.0064314999981434084,None,372.43997669999953,372.43997669999953,372.43997669999953,372.43997669999953,372.43997669999953,372.43997669999953,372.43997669999953,372.43997669999953,372.43997669999953,372.43997669999953,,008,P022,2025_May_13_1802,ConditionRich,2021.2.3,59.95466228377706,
348.0,351.75,32,0.75,Stimuli/P016/things_pheasant_08s.jpg,0,0,0.0,0,152,152,152,,,,,,,,,,,,,348.0072957000011,0.007295700001122896,None,372.69019980000303,372.69019980000303,372.69019980000303,372.69019980000303,372.69019980000303,372.69019980000303,372.69019980000303,372.69019980000303,372.69019980000303,372.69019980000303,,008,P022,2025_May_13_1802,ConditionRich,2021.2.3,59.95466228377706,
351.75,352.0,41,0.0,Stimuli/Blank.png,0,0,0.0,0,153,153,153,,,,,,,,,,,,,351.7621239,0.01212390000000596,None,376.46021579999797,376.46021579999797,376.46021579999797,376.46021579999797,376.46021579999797,376.46021579999797,376.46021579999797,376.46021579999797,376.46021579999797,376.46021579999797,,008,P022,2025_May_13_1802,ConditionRich,2021.2.3,59.95466228377706,
352.0,355.75,25,0.75,Stimuli/P016/things_deer_08s.jpg,1,0,0.75,0,154,154,154,,,,,,,,,,,,,352.0269505999968,0.02695059999678051,1,376.71041450000484,376.71041450000484,376.71041450000484,376.71041450000484,376.71041450000484,376.71041450000484,376.71041450000484,377.44441070000175,376.71041450000484,376.71041450000484,0.8117019999990589,008,P022,2025_May_13_1802,ConditionRich,2021.2.3,59.95466228377706,
355.75,356.0,41,0.0,Stimuli/Blank.png,0,0,0.0,0,155,155,155,,,,,,,,,,,,,355.7634476000021,0.013447600002109539,None,380.4470517000009,380.4470517000009,380.4470517000009,380.4470517000009,380.4470517000009,380.4470517000009,380.4470517000009,380.4470517000009,380.4470517000009,380.4470517000009,,008,P022,2025_May_13_1802,ConditionRich,2021.2.3,59.95466228377706,
356.0,359.75,23,0.75,Stimuli/P016/things_boy_08s.jpg,0,0,0.0,0,156,156,156,,,,,,,,,,,,,356.01643350000086,0.016433500000857748,None,380.7139698000028,380.7139698000028,380.7139698000028,380.7139698000028,380.7139698000028,380.7139698000028,380.7139698000028,380.7139698000028,380.7139698000028,380.7139698000028,,008,P022,2025_May_13_1802,ConditionRich,2021.2.3,59.95466228377706,
359.75,360.0,41,0.0,Stimuli/Blank.png,0,0,0.0,0,157,157,157,,,,,,,,,,,,,359.7676747000005,0.017674700000497978,None,384.4506010000041,384.4506010000041,384.4506010000041,384.4506010000041,384.4506010000041,384.4506010000041,384.4506010000041,384.4506010000041,384.4506010000041,384.4506010000041,,008,P022,2025_May_13_1802,ConditionRich,2021.2.3,59.95466228377706,
360.0,363.75,29,0.75,Stimuli/P016/things_mouse1_08s.jpg,0,0,0.0,0,158,158,158,,,,,,,,,,,,,360.0023231000014,0.002323100001376588,None,384.70081680000294,384.70081680000294,384.70081680000294,384.70081680000294,384.70081680000294,384.70081680000294,384.70081680000294,384.70081680000294,384.70081680000294,384.70081680000294,,008,P022,2025_May_13_1802,ConditionRich,2021.2.3,59.95466228377706,
363.75,364.0,41,0.0,Stimuli/Blank.png,0,0,0.0,0,159,159,159,,,,,,,,,,,,,363.7721515000012,0.022151500001200475,None,388.45414329999767,388.45414329999767,388.45414329999767,388.45414329999767,388.45414329999767,388.45414329999767,388.45414329999767,388.45414329999767,388.45414329999767,388.45414329999767,,008,P022,2025_May_13_1802,ConditionRich,2021.2.3,59.95466228377706,
364.0,367.75,9,0.75,Stimuli/P016/sun_bbdgftzhpkaklkll.jpg,0,0,0.0,0,160,160,160,,,,,,,,,,,,,364.00715489999857,0.007154899998567998,None,388.7043663000004,388.7043663000004,388.7043663000004,388.7043663000004,388.7043663000004,388.7043663000004,388.7043663000004,388.7043663000004,388.7043663000004,388.7043663000004,,008,P022,2025_May_13_1802,ConditionRich,2021.2.3,59.95466228377706,
367.75,368.0,41,0.0,Stimuli/Blank.png,0,0,0.0,0,161,161,161,,,,,,,,,,,,,367.7768905999983,0.02689059999829624,None,392.47431119999965,392.47431119999965,392.47431119999965,392.47431119999965,392.47431119999965,392.47431119999965,392.47431119999965,392.47431119999965,392.47431119999965,392.47431119999965,,008,P022,2025_May_13_1802,ConditionRich,2021.2.3,59.95466228377706,
368.0,371.75,38,0.75,Stimuli/P016/things_trumpet_08s.jpg,0,0,0.0,0,162,162,162,,,,,,,,,,,,,368.027047399999,0.02704739999899175,None,392.7245918999979,392.7245918999979,392.7245918999979,392.7245918999979,392.7245918999979,392.7245918999979,392.7245918999979,392.7245918999979,392.7245918999979,392.7245918999979,,008,P022,2025_May_13_1802,ConditionRich,2021.2.3,59.95466228377706,
371.75,372.0,41,0.0,Stimuli/Blank.png,0,0,0.0,0,163,163,163,,,,,,,,,,,,,371.7781173999974,0.028117399997427128,None,396.46121539999876,396.46121539999876,396.46121539999876,396.46121539999876,396.46121539999876,396.46121539999876,396.46121539999876,396.46121539999876,396.46121539999876,396.46121539999876,,008,P022,2025_May_13_1802,ConditionRich,2021.2.3,59.95466228377706,
372.0,388.0,0,0.0,Stimuli/Blank.png,1,2,2.75,0,164,164,164,,,,,,,,,,,,,372.01144860000204,0.011448600002040621,1,396.69475650000095,396.69475650000095,396.69475650000095,396.69475650000095,396.69475650000095,396.69475650000095,398.6798473000017,399.4305533000006,396.69475650000095,396.69475650000095,2.5133287999997265,008,P022,2025_May_13_1802,ConditionRich,2021.2.3,59.95466228377706,
