eventStartTime,eventEndTime,eventCond,imSize,imFile,responseEvent,fixRespStart,fixRespEnd,Events.thisRepN,Events.thisTrialN,Events.thisN,Events.thisIndex,Instructions.started,Instructions.stopped,participantReadyResponse.keys,participantReadyResponse.rt,participantReadyResponse.started,participantReadyResponse.stopped,startWaitforTrigger,triggerResponse.keys,triggerResponse.rt,triggerResponse.started,triggerResponse.stopped,globalTimer,actualStartTime,startTimingDiff,participantResponse.keys,participantResponse.rt,participantResponse.started,participantResponse.stopped,image.started,image.stopped,fixationOutside.started,fixationOutside.stopped,fixationResponse.started,fixationResponse.stopped,fixationInside.started,fixationInside.stopped,session,participant,date,expName,psychopyVersion,frameRate,
,,,,,,,,,,,,9.754392000002554,None,1,1.8178591999967466,9.754392000002554,None,,,,,,,,,,,,,,,,,,,,,003,P022,2025_May_13_1713,ConditionRich,2021.2.3,59.92272365487598,
,,,,,,,,,,,,,,,,,,11.588518199998362,5,15.363951300001645,11.601475199997367,None,,,,,,,,,,,,,,,,003,P022,2025_May_13_1713,ConditionRich,2021.2.3,59.92272365487598,
0.0,4.0,0,0.0,Stimuli/Blank.png,0,0,0.0,0,0,0,0,,,,,,,,,,,,26.969312599998375,0.07441560000006575,0.07441560000006575,1,0.440099100000225,27.065166500004125,None,27.065166500004125,None,27.065166500004125,None,27.065166500004125,27.065166500004125,27.065166500004125,None,003,P022,2025_May_13_1713,ConditionRich,2021.2.3,59.92272365487598,
4.0,4.75,36,0.75,Stimuli/P016/things_streetlight_08s.jpg,0,0,0.0,0,1,1,1,,,,,,,,,,,,,4.021110399997269,0.02111039999726927,None,,31.018933600003948,31.018933600003948,31.018933600003948,31.018933600003948,31.018933600003948,31.018933600003948,31.018933600003948,31.018933600003948,31.018933600003948,31.018933600003948,003,P022,2025_May_13_1713,ConditionRich,2021.2.3,59.92272365487598,
4.75,5.0,41,0.0,Stimuli/Blank.png,0,0,0.0,0,2,2,2,,,,,,,,,,,,,4.768966399999044,0.01896639999904437,None,,31.753200899998774,31.753200899998774,31.753200899998774,31.753200899998774,31.753200899998774,31.753200899998774,31.753200899998774,31.753200899998774,31.753200899998774,31.753200899998774,003,P022,2025_May_13_1713,ConditionRich,2021.2.3,59.92272365487598,
5.0,5.75,36,0.75,Stimuli/P016/things_streetlight_08s.jpg,0,0,0.0,0,3,3,3,,,,,,,,,,,,,5.002519499998016,0.0025194999980158173,None,,31.98615869999776,31.98615869999776,31.98615869999776,31.98615869999776,31.98615869999776,31.98615869999776,31.98615869999776,31.98615869999776,31.98615869999776,31.98615869999776,003,P022,2025_May_13_1713,ConditionRich,2021.2.3,59.92272365487598,
5.75,6.0,41,0.0,Stimuli/Blank.png,0,0,0.0,0,4,4,4,,,,,,,,,,,,,5.753042999996978,0.003042999996978324,None,,32.73685110000224,32.73685110000224,32.73685110000224,32.73685110000224,32.73685110000224,32.73685110000224,32.73685110000224,32.73685110000224,32.73685110000224,32.73685110000224,003,P022,2025_May_13_1713,ConditionRich,2021.2.3,59.92272365487598,
6.0,6.75,36,0.75,Stimuli/P016/things_streetlight_08s.jpg,0,0,0.0,0,5,5,5,,,,,,,,,,,,,6.003691300000355,0.0036913000003551133,None,,32.98705699999846,32.98705699999846,32.98705699999846,32.98705699999846,32.98705699999846,32.98705699999846,32.98705699999846,32.98705699999846,32.98705699999846,32.98705699999846,003,P022,2025_May_13_1713,ConditionRich,2021.2.3,59.92272365487598,
6.75,7.0,41,0.0,Stimuli/Blank.png,0,0,0.0,0,6,6,6,,,,,,,,,,,,,6.7539337999987765,0.0039337999987765215,None,,33.737747600003786,33.737747600003786,33.737747600003786,33.737747600003786,33.737747600003786,33.737747600003786,33.737747600003786,33.737747600003786,33.737747600003786,33.737747600003786,003,P022,2025_May_13_1713,ConditionRich,2021.2.3,59.92272365487598,
7.0,7.75,36,0.75,Stimuli/P016/things_streetlight_08s.jpg,0,0,0.0,0,7,7,7,,,,,,,,,,,,,7.004129499997362,0.004129499997361563,None,,33.987958899997466,33.987958899997466,33.987958899997466,33.987958899997466,33.987958899997466,33.987958899997466,33.987958899997466,33.987958899997466,33.987958899997466,33.987958899997466,003,P022,2025_May_13_1713,ConditionRich,2021.2.3,59.92272365487598,
7.75,8.0,41,0.0,Stimuli/Blank.png,0,0,0.0,0,8,8,8,,,,,,,,,,,,,7.754784600001585,0.004784600001585204,None,,34.73863050000364,34.73863050000364,34.73863050000364,34.73863050000364,34.73863050000364,34.73863050000364,34.73863050000364,34.73863050000364,34.73863050000364,34.73863050000364,003,P022,2025_May_13_1713,ConditionRich,2021.2.3,59.92272365487598,
8.0,8.75,14,0.75,Stimuli/P016/sun_bpvmkbyglkraoxhh.jpg,0,0,0.0,0,9,9,9,,,,,,,,,,,,,8.005063500000688,0.005063500000687782,None,,34.98885860000155,34.98885860000155,34.98885860000155,34.98885860000155,34.98885860000155,34.98885860000155,34.98885860000155,34.98885860000155,34.98885860000155,34.98885860000155,003,P022,2025_May_13_1713,ConditionRich,2021.2.3,59.92272365487598,
8.75,9.0,41,0.0,Stimuli/Blank.png,0,0,0.0,0,10,10,10,,,,,,,,,,,,,8.756540099995618,0.00654009999561822,None,,35.73952499999723,35.73952499999723,35.73952499999723,35.73952499999723,35.73952499999723,35.73952499999723,35.73952499999723,35.73952499999723,35.73952499999723,35.73952499999723,003,P022,2025_May_13_1713,ConditionRich,2021.2.3,59.92272365487598,
9.0,9.75,14,0.75,Stimuli/P016/sun_bpvmkbyglkraoxhh.jpg,0,0,0.0,0,11,11,11,,,,,,,,,,,,,9.007658599999559,0.007658599999558646,None,,36.00654999999824,36.00654999999824,36.00654999999824,36.00654999999824,36.00654999999824,36.00654999999824,36.00654999999824,36.00654999999824,36.00654999999824,36.00654999999824,003,P022,2025_May_13_1713,ConditionRich,2021.2.3,59.92272365487598,
9.75,10.0,41,0.0,Stimuli/Blank.png,0,0,0.0,0,12,12,12,,,,,,,,,,,,,9.774050799998804,0.024050799998803996,None,,36.75707649999822,36.75707649999822,36.75707649999822,36.75707649999822,36.75707649999822,36.75707649999822,36.75707649999822,36.75707649999822,36.75707649999822,36.75707649999822,003,P022,2025_May_13_1713,ConditionRich,2021.2.3,59.92272365487598,
10.0,10.75,14,0.75,Stimuli/P016/sun_bpvmkbyglkraoxhh.jpg,0,0,0.0,0,13,13,13,,,,,,,,,,,,,10.007573599999887,0.0075735999998869374,None,,36.99062250000134,36.99062250000134,36.99062250000134,36.99062250000134,36.99062250000134,36.99062250000134,36.99062250000134,36.99062250000134,36.99062250000134,36.99062250000134,003,P022,2025_May_13_1713,ConditionRich,2021.2.3,59.92272365487598,
10.75,11.0,41,0.0,Stimuli/Blank.png,0,0,0.0,0,14,14,14,,,,,,,,,,,,,10.758067700000538,0.008067700000538025,None,,37.741273500003444,37.741273500003444,37.741273500003444,37.741273500003444,37.741273500003444,37.741273500003444,37.741273500003444,37.741273500003444,37.741273500003444,37.741273500003444,003,P022,2025_May_13_1713,ConditionRich,2021.2.3,59.92272365487598,
11.0,11.75,14,0.75,Stimuli/P016/sun_bpvmkbyglkraoxhh.jpg,0,0,0.0,0,15,15,15,,,,,,,,,,,,,11.00758059999498,0.00758059999498073,None,,37.99149469999975,37.99149469999975,37.99149469999975,37.99149469999975,37.99149469999975,37.99149469999975,37.99149469999975,37.99149469999975,37.99149469999975,37.99149469999975,003,P022,2025_May_13_1713,ConditionRich,2021.2.3,59.92272365487598,
11.75,12.0,41,0.0,Stimuli/Blank.png,0,0,0.0,0,16,16,16,,,,,,,,,,,,,11.7588409999953,0.00884099999530008,None,,38.74216709999746,38.74216709999746,38.74216709999746,38.74216709999746,38.74216709999746,38.74216709999746,38.74216709999746,38.74216709999746,38.74216709999746,38.74216709999746,003,P022,2025_May_13_1713,ConditionRich,2021.2.3,59.92272365487598,
12.0,12.75,18,0.75,Stimuli/P016/sun_byavixgfuhzioilz.jpg,0,0,0.0,0,17,17,17,,,,,,,,,,,,,12.009399999995367,0.00939999999536667,None,,39.009081800002605,39.009081800002605,39.009081800002605,39.009081800002605,39.009081800002605,39.009081800002605,39.009081800002605,39.009081800002605,39.009081800002605,39.009081800002605,003,P022,2025_May_13_1713,ConditionRich,2021.2.3,59.92272365487598,
12.75,13.0,41,0.0,Stimuli/Blank.png,0,0,0.0,0,18,18,18,,,,,,,,,,,,,12.77597109999624,0.02597109999624081,None,,39.75985539999965,39.75985539999965,39.75985539999965,39.75985539999965,39.75985539999965,39.75985539999965,39.75985539999965,39.75985539999965,39.75985539999965,39.75985539999965,003,P022,2025_May_13_1713,ConditionRich,2021.2.3,59.92272365487598,
13.0,13.75,18,0.75,Stimuli/P016/sun_byavixgfuhzioilz.jpg,1,0,0.75,0,19,19,19,,,,,,,,,,,,,13.009549800000968,0.00954980000096839,1,0.3849575999993249,39.99326350000047,39.99326350000047,39.99326350000047,39.99326350000047,39.99326350000047,39.99326350000047,39.99326350000047,40.727306799999496,39.99326350000047,39.99326350000047,003,P022,2025_May_13_1713,ConditionRich,2021.2.3,59.92272365487598,
13.75,14.0,41,0.0,Stimuli/Blank.png,0,0,0.0,0,20,20,20,,,,,,,,,,,,,13.760482999998203,0.010482999998203013,None,,40.74394149999716,40.74394149999716,40.74394149999716,40.74394149999716,40.74394149999716,40.74394149999716,40.74394149999716,40.74394149999716,40.74394149999716,40.74394149999716,003,P022,2025_May_13_1713,ConditionRich,2021.2.3,59.92272365487598,
14.0,14.75,18,0.75,Stimuli/P016/sun_byavixgfuhzioilz.jpg,0,0,0.0,0,21,21,21,,,,,,,,,,,,,14.010856199995033,0.010856199995032512,None,,40.994146900004125,40.994146900004125,40.994146900004125,40.994146900004125,40.994146900004125,40.994146900004125,40.994146900004125,40.994146900004125,40.994146900004125,40.994146900004125,003,P022,2025_May_13_1713,ConditionRich,2021.2.3,59.92272365487598,
14.75,15.0,41,0.0,Stimuli/Blank.png,0,0,0.0,0,22,22,22,,,,,,,,,,,,,14.760892799997237,0.01089279999723658,None,,41.744812099997944,41.744812099997944,41.744812099997944,41.744812099997944,41.744812099997944,41.744812099997944,41.744812099997944,41.744812099997944,41.744812099997944,41.744812099997944,003,P022,2025_May_13_1713,ConditionRich,2021.2.3,59.92272365487598,
15.0,15.75,18,0.75,Stimuli/P016/sun_byavixgfuhzioilz.jpg,0,0,0.0,0,23,23,23,,,,,,,,,,,,,15.011884999999893,0.011884999999892898,None,,41.995030199999746,41.995030199999746,41.995030199999746,41.995030199999746,41.995030199999746,41.995030199999746,41.995030199999746,41.995030199999746,41.995030199999746,41.995030199999746,003,P022,2025_May_13_1713,ConditionRich,2021.2.3,59.92272365487598,
15.75,16.0,41,0.0,Stimuli/Blank.png,0,0,0.0,0,24,24,24,,,,,,,,,,,,,15.761996099994576,0.01199609999457607,None,,42.745746400003554,42.745746400003554,42.745746400003554,42.745746400003554,42.745746400003554,42.745746400003554,42.745746400003554,42.745746400003554,42.745746400003554,42.745746400003554,003,P022,2025_May_13_1713,ConditionRich,2021.2.3,59.92272365487598,
16.0,16.75,9,0.75,Stimuli/P016/sun_bbdgftzhpkaklkll.jpg,0,0,0.0,0,25,25,25,,,,,,,,,,,,,16.012101199994504,0.012101199994503986,None,,42.99593820000155,42.99593820000155,42.99593820000155,42.99593820000155,42.99593820000155,42.99593820000155,42.99593820000155,42.99593820000155,42.99593820000155,42.99593820000155,003,P022,2025_May_13_1713,ConditionRich,2021.2.3,59.92272365487598,
16.75,17.0,41,0.0,Stimuli/Blank.png,0,0,0.0,0,26,26,26,,,,,,,,,,,,,16.76265639999474,0.012656399994739331,None,,43.74660420000146,43.74660420000146,43.74660420000146,43.74660420000146,43.74660420000146,43.74660420000146,43.74660420000146,43.74660420000146,43.74660420000146,43.74660420000146,003,P022,2025_May_13_1713,ConditionRich,2021.2.3,59.92272365487598,
17.0,17.75,9,0.75,Stimuli/P016/sun_bbdgftzhpkaklkll.jpg,0,0,0.0,0,27,27,27,,,,,,,,,,,,,17.013439800000924,0.013439800000924151,None,,43.99681270000292,43.99681270000292,43.99681270000292,43.99681270000292,43.99681270000292,43.99681270000292,43.99681270000292,43.99681270000292,43.99681270000292,43.99681270000292,003,P022,2025_May_13_1713,ConditionRich,2021.2.3,59.92272365487598,
17.75,18.0,41,0.0,Stimuli/Blank.png,0,0,0.0,0,28,28,28,,,,,,,,,,,,,17.76426929999434,0.014269299994339235,None,,44.74752989999979,44.74752989999979,44.74752989999979,44.74752989999979,44.74752989999979,44.74752989999979,44.74752989999979,44.74752989999979,44.74752989999979,44.74752989999979,003,P022,2025_May_13_1713,ConditionRich,2021.2.3,59.92272365487598,
18.0,18.75,9,0.75,Stimuli/P016/sun_bbdgftzhpkaklkll.jpg,0,0,0.0,0,29,29,29,,,,,,,,,,,,,18.013782599999104,0.013782599999103695,None,,44.9976874999993,44.9976874999993,44.9976874999993,44.9976874999993,44.9976874999993,44.9976874999993,44.9976874999993,44.9976874999993,44.9976874999993,44.9976874999993,003,P022,2025_May_13_1713,ConditionRich,2021.2.3,59.92272365487598,
18.75,19.0,41,0.0,Stimuli/Blank.png,0,0,0.0,0,30,30,30,,,,,,,,,,,,,18.764435500001127,0.014435500001127366,None,,45.74834910000209,45.74834910000209,45.74834910000209,45.74834910000209,45.74834910000209,45.74834910000209,45.74834910000209,45.74834910000209,45.74834910000209,45.74834910000209,003,P022,2025_May_13_1713,ConditionRich,2021.2.3,59.92272365487598,
19.0,19.75,9,0.75,Stimuli/P016/sun_bbdgftzhpkaklkll.jpg,0,0,0.0,0,31,31,31,,,,,,,,,,,,,19.01462950000132,0.014629500001319684,None,,45.99857460000203,45.99857460000203,45.99857460000203,45.99857460000203,45.99857460000203,45.99857460000203,45.99857460000203,45.99857460000203,45.99857460000203,45.99857460000203,003,P022,2025_May_13_1713,ConditionRich,2021.2.3,59.92272365487598,
19.75,20.0,41,0.0,Stimuli/Blank.png,0,0,0.0,0,32,32,32,,,,,,,,,,,,,19.76603719999548,0.016037199995480478,None,,46.74924910000118,46.74924910000118,46.74924910000118,46.74924910000118,46.74924910000118,46.74924910000118,46.74924910000118,46.74924910000118,46.74924910000118,46.74924910000118,003,P022,2025_May_13_1713,ConditionRich,2021.2.3,59.92272365487598,
20.0,20.75,3,0.75,Stimuli/P016/sun_aiogwnavezqxkzfg.jpg,0,0,0.0,0,33,33,33,,,,,,,,,,,,,19.998860899999272,-0.0011391000007279217,None,,46.982783699997526,46.982783699997526,46.982783699997526,46.982783699997526,46.982783699997526,46.982783699997526,46.982783699997526,46.982783699997526,46.982783699997526,46.982783699997526,003,P022,2025_May_13_1713,ConditionRich,2021.2.3,59.92272365487598,
20.75,21.0,41,0.0,Stimuli/Blank.png,0,0,0.0,0,34,34,34,,,,,,,,,,,,,20.749515399998927,-0.00048460000107297674,None,,47.73345369999879,47.73345369999879,47.73345369999879,47.73345369999879,47.73345369999879,47.73345369999879,47.73345369999879,47.73345369999879,47.73345369999879,47.73345369999879,003,P022,2025_May_13_1713,ConditionRich,2021.2.3,59.92272365487598,
21.0,21.75,3,0.75,Stimuli/P016/sun_aiogwnavezqxkzfg.jpg,0,0,0.0,0,35,35,35,,,,,,,,,,,,,21.000447099999292,0.0004470999992918223,None,,47.98366170000372,47.98366170000372,47.98366170000372,47.98366170000372,47.98366170000372,47.98366170000372,47.98366170000372,47.98366170000372,47.98366170000372,47.98366170000372,003,P022,2025_May_13_1713,ConditionRich,2021.2.3,59.92272365487598,
21.75,22.0,41,0.0,Stimuli/Blank.png,0,0,0.0,0,36,36,36,,,,,,,,,,,,,21.753605799996876,0.003605799996876158,None,,48.75102670000342,48.75102670000342,48.75102670000342,48.75102670000342,48.75102670000342,48.75102670000342,48.75102670000342,48.75102670000342,48.75102670000342,48.75102670000342,003,P022,2025_May_13_1713,ConditionRich,2021.2.3,59.92272365487598,
22.0,22.75,3,0.75,Stimuli/P016/sun_aiogwnavezqxkzfg.jpg,0,0,0.0,0,37,37,37,,,,,,,,,,,,,22.018185000000813,0.01818500000081258,None,,49.017918700003065,49.017918700003065,49.017918700003065,49.017918700003065,49.017918700003065,49.017918700003065,49.017918700003065,49.017918700003065,49.017918700003065,49.017918700003065,003,P022,2025_May_13_1713,ConditionRich,2021.2.3,59.92272365487598,
22.75,23.0,41,0.0,Stimuli/Blank.png,0,0,0.0,0,38,38,38,,,,,,,,,,,,,22.76896729999862,0.018967299998621456,None,,49.751900499999465,49.751900499999465,49.751900499999465,49.751900499999465,49.751900499999465,49.751900499999465,49.751900499999465,49.751900499999465,49.751900499999465,49.751900499999465,003,P022,2025_May_13_1713,ConditionRich,2021.2.3,59.92272365487598,
23.0,23.75,3,0.75,Stimuli/P016/sun_aiogwnavezqxkzfg.jpg,0,0,0.0,0,39,39,39,,,,,,,,,,,,,23.00455520000105,0.0045552000010502525,None,,50.00211510000372,50.00211510000372,50.00211510000372,50.00211510000372,50.00211510000372,50.00211510000372,50.00211510000372,50.00211510000372,50.00211510000372,50.00211510000372,003,P022,2025_May_13_1713,ConditionRich,2021.2.3,59.92272365487598,
23.75,24.0,41,0.0,Stimuli/Blank.png,0,0,0.0,0,40,40,40,,,,,,,,,,,,,23.76878990000114,0.01878990000113845,None,,50.752778000001854,50.752778000001854,50.752778000001854,50.752778000001854,50.752778000001854,50.752778000001854,50.752778000001854,50.752778000001854,50.752778000001854,50.752778000001854,003,P022,2025_May_13_1713,ConditionRich,2021.2.3,59.92272365487598,
24.0,24.75,24,0.75,Stimuli/P016/things_bunkbed_08s.jpg,0,0,0.0,0,41,41,41,,,,,,,,,,,,,24.003016099995875,0.0030160999958752654,None,,50.98629140000412,50.98629140000412,50.98629140000412,50.98629140000412,50.98629140000412,50.98629140000412,50.98629140000412,50.98629140000412,50.98629140000412,50.98629140000412,003,P022,2025_May_13_1713,ConditionRich,2021.2.3,59.92272365487598,
24.75,25.0,41,0.0,Stimuli/Blank.png,0,0,0.0,0,42,42,42,,,,,,,,,,,,,24.753047699996387,0.0030476999963866547,None,,51.736989999997604,51.736989999997604,51.736989999997604,51.736989999997604,51.736989999997604,51.736989999997604,51.736989999997604,51.736989999997604,51.736989999997604,51.736989999997604,003,P022,2025_May_13_1713,ConditionRich,2021.2.3,59.92272365487598,
25.0,25.75,24,0.75,Stimuli/P016/things_bunkbed_08s.jpg,0,0,0.0,0,43,43,43,,,,,,,,,,,,,25.003297499999462,0.003297499999462161,None,,51.98721050000313,51.98721050000313,51.98721050000313,51.98721050000313,51.98721050000313,51.98721050000313,51.98721050000313,51.98721050000313,51.98721050000313,51.98721050000313,003,P022,2025_May_13_1713,ConditionRich,2021.2.3,59.92272365487598,
25.75,26.0,41,0.0,Stimuli/Blank.png,0,0,0.0,0,44,44,44,,,,,,,,,,,,,25.754753399996844,0.004753399996843655,None,,52.737878400002955,52.737878400002955,52.737878400002955,52.737878400002955,52.737878400002955,52.737878400002955,52.737878400002955,52.737878400002955,52.737878400002955,52.737878400002955,003,P022,2025_May_13_1713,ConditionRich,2021.2.3,59.92272365487598,
26.0,26.75,24,0.75,Stimuli/P016/things_bunkbed_08s.jpg,0,0,0.0,0,45,45,45,,,,,,,,,,,,,26.00476399999752,0.004763999997521751,None,,52.98805349999748,52.98805349999748,52.98805349999748,52.98805349999748,52.98805349999748,52.98805349999748,52.98805349999748,52.98805349999748,52.98805349999748,52.98805349999748,003,P022,2025_May_13_1713,ConditionRich,2021.2.3,59.92272365487598,
26.75,27.0,41,0.0,Stimuli/Blank.png,0,0,0.0,0,46,46,46,,,,,,,,,,,,,26.75478899999871,0.004788999998709187,None,,53.738761200002045,53.738761200002045,53.738761200002045,53.738761200002045,53.738761200002045,53.738761200002045,53.738761200002045,53.738761200002045,53.738761200002045,53.738761200002045,003,P022,2025_May_13_1713,ConditionRich,2021.2.3,59.92272365487598,
27.0,27.75,24,0.75,Stimuli/P016/things_bunkbed_08s.jpg,0,0,0.0,0,47,47,47,,,,,,,,,,,,,27.005124600000272,0.005124600000272039,None,,53.988979599998856,53.988979599998856,53.988979599998856,53.988979599998856,53.988979599998856,53.988979599998856,53.988979599998856,53.988979599998856,53.988979599998856,53.988979599998856,003,P022,2025_May_13_1713,ConditionRich,2021.2.3,59.92272365487598,
27.75,28.0,41,0.0,Stimuli/Blank.png,0,0,0.0,0,48,48,48,,,,,,,,,,,,,27.758417199998803,0.008417199998802971,None,,54.75633480000397,54.75633480000397,54.75633480000397,54.75633480000397,54.75633480000397,54.75633480000397,54.75633480000397,54.75633480000397,54.75633480000397,54.75633480000397,003,P022,2025_May_13_1713,ConditionRich,2021.2.3,59.92272365487598,
28.0,28.75,16,0.75,Stimuli/P016/sun_bwhuwxazfqwuqhik.jpg,0,0,0.0,0,49,49,49,,,,,,,,,,,,,28.022696899999573,0.02269689999957336,None,,55.006543199997395,55.006543199997395,55.006543199997395,55.006543199997395,55.006543199997395,55.006543199997395,55.006543199997395,55.006543199997395,55.006543199997395,55.006543199997395,003,P022,2025_May_13_1713,ConditionRich,2021.2.3,59.92272365487598,
28.75,29.0,41,0.0,Stimuli/Blank.png,0,0,0.0,0,50,50,50,,,,,,,,,,,,,28.756759899995814,0.006759899995813612,None,,55.74056700000074,55.74056700000074,55.74056700000074,55.74056700000074,55.74056700000074,55.74056700000074,55.74056700000074,55.74056700000074,55.74056700000074,55.74056700000074,003,P022,2025_May_13_1713,ConditionRich,2021.2.3,59.92272365487598,
29.0,29.75,16,0.75,Stimuli/P016/sun_bwhuwxazfqwuqhik.jpg,0,0,0.0,0,51,51,51,,,,,,,,,,,,,29.00749039999937,0.0074903999993694015,None,,56.00744880000275,56.00744880000275,56.00744880000275,56.00744880000275,56.00744880000275,56.00744880000275,56.00744880000275,56.00744880000275,56.00744880000275,56.00744880000275,003,P022,2025_May_13_1713,ConditionRich,2021.2.3,59.92272365487598,
29.75,30.0,41,0.0,Stimuli/Blank.png,0,0,0.0,0,52,52,52,,,,,,,,,,,,,29.77505630000087,0.02505630000086967,None,,56.758114500000374,56.758114500000374,56.758114500000374,56.758114500000374,56.758114500000374,56.758114500000374,56.758114500000374,56.758114500000374,56.758114500000374,56.758114500000374,003,P022,2025_May_13_1713,ConditionRich,2021.2.3,59.92272365487598,
30.0,30.75,16,0.75,Stimuli/P016/sun_bwhuwxazfqwuqhik.jpg,0,0,0.0,0,53,53,53,,,,,,,,,,,,,30.007980299997143,0.007980299997143447,None,,56.99159089999739,56.99159089999739,56.99159089999739,56.99159089999739,56.99159089999739,56.99159089999739,56.99159089999739,56.99159089999739,56.99159089999739,56.99159089999739,003,P022,2025_May_13_1713,ConditionRich,2021.2.3,59.92272365487598,
30.75,31.0,41,0.0,Stimuli/Blank.png,0,0,0.0,0,54,54,54,,,,,,,,,,,,,30.759761499997694,0.009761499997694045,None,,57.74230150000221,57.74230150000221,57.74230150000221,57.74230150000221,57.74230150000221,57.74230150000221,57.74230150000221,57.74230150000221,57.74230150000221,57.74230150000221,003,P022,2025_May_13_1713,ConditionRich,2021.2.3,59.92272365487598,
31.0,31.75,16,0.75,Stimuli/P016/sun_bwhuwxazfqwuqhik.jpg,0,0,0.0,0,55,55,55,,,,,,,,,,,,,31.009127999997872,0.009127999997872394,None,,57.99252340000385,57.99252340000385,57.99252340000385,57.99252340000385,57.99252340000385,57.99252340000385,57.99252340000385,57.99252340000385,57.99252340000385,57.99252340000385,003,P022,2025_May_13_1713,ConditionRich,2021.2.3,59.92272365487598,
31.75,32.0,41,0.0,Stimuli/Blank.png,0,0,0.0,0,56,56,56,,,,,,,,,,,,,31.759462299996812,0.009462299996812362,None,,58.743191800000204,58.743191800000204,58.743191800000204,58.743191800000204,58.743191800000204,58.743191800000204,58.743191800000204,58.743191800000204,58.743191800000204,58.743191800000204,003,P022,2025_May_13_1713,ConditionRich,2021.2.3,59.92272365487598,
32.0,32.75,5,0.75,Stimuli/P016/sun_ajgmxbrxdpmsaext.jpg,0,0,0.0,0,57,57,57,,,,,,,,,,,,,32.01045879999583,0.010458799995831214,None,,58.99340220000158,58.99340220000158,58.99340220000158,58.99340220000158,58.99340220000158,58.99340220000158,58.99340220000158,58.99340220000158,58.99340220000158,58.99340220000158,003,P022,2025_May_13_1713,ConditionRich,2021.2.3,59.92272365487598,
32.75,33.0,41,0.0,Stimuli/Blank.png,0,0,0.0,0,58,58,58,,,,,,,,,,,,,32.76078889999917,0.010788899999170098,None,,59.74404289999802,59.74404289999802,59.74404289999802,59.74404289999802,59.74404289999802,59.74404289999802,59.74404289999802,59.74404289999802,59.74404289999802,59.74404289999802,003,P022,2025_May_13_1713,ConditionRich,2021.2.3,59.92272365487598,
33.0,33.75,5,0.75,Stimuli/P016/sun_ajgmxbrxdpmsaext.jpg,0,0,0.0,0,59,59,59,,,,,,,,,,,,,33.01346449999983,0.01346449999982724,None,,60.01097540000046,60.01097540000046,60.01097540000046,60.01097540000046,60.01097540000046,60.01097540000046,60.01097540000046,60.01097540000046,60.01097540000046,60.01097540000046,003,P022,2025_May_13_1713,ConditionRich,2021.2.3,59.92272365487598,
33.75,34.0,41,0.0,Stimuli/Blank.png,0,0,0.0,0,60,60,60,,,,,,,,,,,,,33.77788029999647,0.02788029999646824,None,,60.761639000003925,60.761639000003925,60.761639000003925,60.761639000003925,60.761639000003925,60.761639000003925,60.761639000003925,60.761639000003925,60.761639000003925,60.761639000003925,003,P022,2025_May_13_1713,ConditionRich,2021.2.3,59.92272365487598,
34.0,34.75,5,0.75,Stimuli/P016/sun_ajgmxbrxdpmsaext.jpg,0,0,0.0,0,61,61,61,,,,,,,,,,,,,34.013395399997535,0.013395399997534696,None,,61.011849900001835,61.011849900001835,61.011849900001835,61.011849900001835,61.011849900001835,61.011849900001835,61.011849900001835,61.011849900001835,61.011849900001835,61.011849900001835,003,P022,2025_May_13_1713,ConditionRich,2021.2.3,59.92272365487598,
34.75,35.0,41,0.0,Stimuli/Blank.png,0,0,0.0,0,62,62,62,,,,,,,,,,,,,34.78113819999999,0.031138199999986682,None,,61.77920879999874,61.77920879999874,61.77920879999874,61.77920879999874,61.77920879999874,61.77920879999874,61.77920879999874,61.77920879999874,61.77920879999874,61.77920879999874,003,P022,2025_May_13_1713,ConditionRich,2021.2.3,59.92272365487598,
35.0,35.75,5,0.75,Stimuli/P016/sun_ajgmxbrxdpmsaext.jpg,0,0,0.0,0,63,63,63,,,,,,,,,,,,,35.02920649999578,0.029206499995780177,None,,62.01274589999957,62.01274589999957,62.01274589999957,62.01274589999957,62.01274589999957,62.01274589999957,62.01274589999957,62.01274589999957,62.01274589999957,62.01274589999957,003,P022,2025_May_13_1713,ConditionRich,2021.2.3,59.92272365487598,
35.75,36.0,41,0.0,Stimuli/Blank.png,0,0,0.0,0,64,64,64,,,,,,,,,,,,,35.76433669999824,0.014336699998239055,None,,62.746703500000876,62.746703500000876,62.746703500000876,62.746703500000876,62.746703500000876,62.746703500000876,62.746703500000876,62.746703500000876,62.746703500000876,62.746703500000876,003,P022,2025_May_13_1713,ConditionRich,2021.2.3,59.92272365487598,
36.0,36.75,22,0.75,Stimuli/P016/things_baby_08s.jpg,0,0,0.0,0,65,65,65,,,,,,,,,,,,,36.013379500000156,0.013379500000155531,None,,62.996951799999806,62.996951799999806,62.996951799999806,62.996951799999806,62.996951799999806,62.996951799999806,62.996951799999806,62.996951799999806,62.996951799999806,62.996951799999806,003,P022,2025_May_13_1713,ConditionRich,2021.2.3,59.92272365487598,
36.75,37.0,41,0.0,Stimuli/Blank.png,0,0,0.0,0,66,66,66,,,,,,,,,,,,,36.763781999994535,0.013781999994534999,None,,63.74761089999811,63.74761089999811,63.74761089999811,63.74761089999811,63.74761089999811,63.74761089999811,63.74761089999811,63.74761089999811,63.74761089999811,63.74761089999811,003,P022,2025_May_13_1713,ConditionRich,2021.2.3,59.92272365487598,
37.0,37.75,22,0.75,Stimuli/P016/things_baby_08s.jpg,0,0,0.0,0,67,67,67,,,,,,,,,,,,,37.014824499994575,0.01482449999457458,None,,63.99782470000355,63.99782470000355,63.99782470000355,63.99782470000355,63.99782470000355,63.99782470000355,63.99782470000355,63.99782470000355,63.99782470000355,63.99782470000355,003,P022,2025_May_13_1713,ConditionRich,2021.2.3,59.92272365487598,
37.75,38.0,41,0.0,Stimuli/Blank.png,0,0,0.0,0,68,68,68,,,,,,,,,,,,,37.76536430000124,0.015364300001238007,None,,64.74848470000143,64.74848470000143,64.74848470000143,64.74848470000143,64.74848470000143,64.74848470000143,64.74848470000143,64.74848470000143,64.74848470000143,64.74848470000143,003,P022,2025_May_13_1713,ConditionRich,2021.2.3,59.92272365487598,
38.0,38.75,22,0.75,Stimuli/P016/things_baby_08s.jpg,0,0,0.0,0,69,69,69,,,,,,,,,,,,,38.01557540000067,0.015575400000670925,None,,64.99870789999841,64.99870789999841,64.99870789999841,64.99870789999841,64.99870789999841,64.99870789999841,64.99870789999841,64.99870789999841,64.99870789999841,64.99870789999841,003,P022,2025_May_13_1713,ConditionRich,2021.2.3,59.92272365487598,
38.75,39.0,41,0.0,Stimuli/Blank.png,0,0,0.0,0,70,70,70,,,,,,,,,,,,,38.74922059999517,-0.0007794000048306771,None,,65.73270480000065,65.73270480000065,65.73270480000065,65.73270480000065,65.73270480000065,65.73270480000065,65.73270480000065,65.73270480000065,65.73270480000065,65.73270480000065,003,P022,2025_May_13_1713,ConditionRich,2021.2.3,59.92272365487598,
39.0,39.75,22,0.75,Stimuli/P016/things_baby_08s.jpg,0,0,0.0,0,71,71,71,,,,,,,,,,,,,38.999086799994984,-0.000913200005015824,None,,65.98290409999754,65.98290409999754,65.98290409999754,65.98290409999754,65.98290409999754,65.98290409999754,65.98290409999754,65.98290409999754,65.98290409999754,65.98290409999754,003,P022,2025_May_13_1713,ConditionRich,2021.2.3,59.92272365487598,
39.75,40.0,41,0.0,Stimuli/Blank.png,0,0,0.0,0,72,72,72,,,,,,,,,,,,,39.74994389999483,-5.610000516753644e-05,None,,66.73359499999788,66.73359499999788,66.73359499999788,66.73359499999788,66.73359499999788,66.73359499999788,66.73359499999788,66.73359499999788,66.73359499999788,66.73359499999788,003,P022,2025_May_13_1713,ConditionRich,2021.2.3,59.92272365487598,
40.0,40.75,32,0.75,Stimuli/P016/things_pheasant_08s.jpg,0,0,0.0,0,73,73,73,,,,,,,,,,,,,39.99985580000066,-0.00014419999934034422,None,,66.98378329999832,66.98378329999832,66.98378329999832,66.98378329999832,66.98378329999832,66.98378329999832,66.98378329999832,66.98378329999832,66.98378329999832,66.98378329999832,003,P022,2025_May_13_1713,ConditionRich,2021.2.3,59.92272365487598,
40.75,41.0,41,0.0,Stimuli/Blank.png,0,0,0.0,0,74,74,74,,,,,,,,,,,,,40.7534725000005,0.0034725000004982576,None,,67.75114140000369,67.75114140000369,67.75114140000369,67.75114140000369,67.75114140000369,67.75114140000369,67.75114140000369,67.75114140000369,67.75114140000369,67.75114140000369,003,P022,2025_May_13_1713,ConditionRich,2021.2.3,59.92272365487598,
41.0,41.75,32,0.75,Stimuli/P016/things_pheasant_08s.jpg,0,0,0.0,0,75,75,75,,,,,,,,,,,,,41.01748669999506,0.017486699995060917,None,,68.00136999999813,68.00136999999813,68.00136999999813,68.00136999999813,68.00136999999813,68.00136999999813,68.00136999999813,68.00136999999813,68.00136999999813,68.00136999999813,003,P022,2025_May_13_1713,ConditionRich,2021.2.3,59.92272365487598,
41.75,42.0,41,0.0,Stimuli/Blank.png,0,0,0.0,0,76,76,76,,,,,,,,,,,,,41.75359059999755,0.0035905999975511804,None,,68.75202669999999,68.75202669999999,68.75202669999999,68.75202669999999,68.75202669999999,68.75202669999999,68.75202669999999,68.75202669999999,68.75202669999999,68.75202669999999,003,P022,2025_May_13_1713,ConditionRich,2021.2.3,59.92272365487598,
42.0,42.75,32,0.75,Stimuli/P016/things_pheasant_08s.jpg,0,0,0.0,0,77,77,77,,,,,,,,,,,,,42.01884319999954,0.01884319999953732,None,,69.0022456000006,69.0022456000006,69.0022456000006,69.0022456000006,69.0022456000006,69.0022456000006,69.0022456000006,69.0022456000006,69.0022456000006,69.0022456000006,003,P022,2025_May_13_1713,ConditionRich,2021.2.3,59.92272365487598,
42.75,43.0,41,0.0,Stimuli/Blank.png,0,0,0.0,0,78,78,78,,,,,,,,,,,,,42.75381899999775,0.0038189999977475964,None,,69.7362370999981,69.7362370999981,69.7362370999981,69.7362370999981,69.7362370999981,69.7362370999981,69.7362370999981,69.7362370999981,69.7362370999981,69.7362370999981,003,P022,2025_May_13_1713,ConditionRich,2021.2.3,59.92272365487598,
43.0,43.75,32,0.75,Stimuli/P016/things_pheasant_08s.jpg,0,0,0.0,0,79,79,79,,,,,,,,,,,,,43.003545399995346,0.003545399995346088,None,,69.98645280000346,69.98645280000346,69.98645280000346,69.98645280000346,69.98645280000346,69.98645280000346,69.98645280000346,69.98645280000346,69.98645280000346,69.98645280000346,003,P022,2025_May_13_1713,ConditionRich,2021.2.3,59.92272365487598,
43.75,44.0,41,0.0,Stimuli/Blank.png,0,0,0.0,0,80,80,80,,,,,,,,,,,,,43.754017499995825,0.0040174999958253466,None,,70.73711619999813,70.73711619999813,70.73711619999813,70.73711619999813,70.73711619999813,70.73711619999813,70.73711619999813,70.73711619999813,70.73711619999813,70.73711619999813,003,P022,2025_May_13_1713,ConditionRich,2021.2.3,59.92272365487598,
44.0,44.75,13,0.75,Stimuli/P016/sun_bphvjnowixlryxot.jpg,0,0,0.0,0,81,81,81,,,,,,,,,,,,,44.00405569999566,0.004055699995660689,None,,71.00402069999836,71.00402069999836,71.00402069999836,71.00402069999836,71.00402069999836,71.00402069999836,71.00402069999836,71.00402069999836,71.00402069999836,71.00402069999836,003,P022,2025_May_13_1713,ConditionRich,2021.2.3,59.92272365487598,
44.75,45.0,41,0.0,Stimuli/Blank.png,0,0,0.0,0,82,82,82,,,,,,,,,,,,,44.77077489999647,0.020774899996467866,None,,71.75469149999844,71.75469149999844,71.75469149999844,71.75469149999844,71.75469149999844,71.75469149999844,71.75469149999844,71.75469149999844,71.75469149999844,71.75469149999844,003,P022,2025_May_13_1713,ConditionRich,2021.2.3,59.92272365487598,
45.0,45.75,13,0.75,Stimuli/P016/sun_bphvjnowixlryxot.jpg,0,0,0.0,0,83,83,83,,,,,,,,,,,,,45.00522519999504,0.005225199995038565,None,,72.00493070000084,72.00493070000084,72.00493070000084,72.00493070000084,72.00493070000084,72.00493070000084,72.00493070000084,72.00493070000084,72.00493070000084,72.00493070000084,003,P022,2025_May_13_1713,ConditionRich,2021.2.3,59.92272365487598,
45.75,46.0,41,0.0,Stimuli/Blank.png,0,0,0.0,0,84,84,84,,,,,,,,,,,,,45.77188229999592,0.02188229999592295,None,,72.75563200000033,72.75563200000033,72.75563200000033,72.75563200000033,72.75563200000033,72.75563200000033,72.75563200000033,72.75563200000033,72.75563200000033,72.75563200000033,003,P022,2025_May_13_1713,ConditionRich,2021.2.3,59.92272365487598,
46.0,46.75,13,0.75,Stimuli/P016/sun_bphvjnowixlryxot.jpg,0,0,0.0,0,85,85,85,,,,,,,,,,,,,46.00536299999658,0.005362999996577855,None,,72.98906700000225,72.98906700000225,72.98906700000225,72.98906700000225,72.98906700000225,72.98906700000225,72.98906700000225,72.98906700000225,72.98906700000225,72.98906700000225,003,P022,2025_May_13_1713,ConditionRich,2021.2.3,59.92272365487598,
46.75,47.0,41,0.0,Stimuli/Blank.png,0,0,0.0,0,86,86,86,,,,,,,,,,,,,46.75603630000114,0.006036300001142081,None,,73.73975919999793,73.73975919999793,73.73975919999793,73.73975919999793,73.73975919999793,73.73975919999793,73.73975919999793,73.73975919999793,73.73975919999793,73.73975919999793,003,P022,2025_May_13_1713,ConditionRich,2021.2.3,59.92272365487598,
47.0,47.75,13,0.75,Stimuli/P016/sun_bphvjnowixlryxot.jpg,0,0,0.0,0,87,87,87,,,,,,,,,,,,,47.008350600000995,0.008350600000994746,None,,74.00667789999716,74.00667789999716,74.00667789999716,74.00667789999716,74.00667789999716,74.00667789999716,74.00667789999716,74.00667789999716,74.00667789999716,74.00667789999716,003,P022,2025_May_13_1713,ConditionRich,2021.2.3,59.92272365487598,
47.75,48.0,41,0.0,Stimuli/Blank.png,0,0,0.0,0,88,88,88,,,,,,,,,,,,,47.77421989999857,0.024219899998570327,None,,74.75738149999961,74.75738149999961,74.75738149999961,74.75738149999961,74.75738149999961,74.75738149999961,74.75738149999961,74.75738149999961,74.75738149999961,74.75738149999961,003,P022,2025_May_13_1713,ConditionRich,2021.2.3,59.92272365487598,
48.0,48.75,15,0.75,Stimuli/P016/sun_bvfcijehgdsndfbg.jpg,1,0,0.75,0,89,89,89,,,,,,,,,,,,,48.00727339999867,0.007273399998666719,1,0.4324124000049778,74.99085980000382,74.99085980000382,74.99085980000382,74.99085980000382,74.99085980000382,74.99085980000382,74.99085980000382,75.72490529999777,74.99085980000382,74.99085980000382,003,P022,2025_May_13_1713,ConditionRich,2021.2.3,59.92272365487598,
48.75,49.0,41,0.0,Stimuli/Blank.png,0,0,0.0,0,90,90,90,,,,,,,,,,,,,48.7591167999999,0.00911679999990156,None,,75.74154750000162,75.74154750000162,75.74154750000162,75.74154750000162,75.74154750000162,75.74154750000162,75.74154750000162,75.74154750000162,75.74154750000162,75.74154750000162,003,P022,2025_May_13_1713,ConditionRich,2021.2.3,59.92272365487598,
49.0,49.75,15,0.75,Stimuli/P016/sun_bvfcijehgdsndfbg.jpg,0,0,0.0,0,91,91,91,,,,,,,,,,,,,49.00894939999853,0.008949399998527952,None,,75.99176420000003,75.99176420000003,75.99176420000003,75.99176420000003,75.99176420000003,75.99176420000003,75.99176420000003,75.99176420000003,75.99176420000003,75.99176420000003,003,P022,2025_May_13_1713,ConditionRich,2021.2.3,59.92272365487598,
49.75,50.0,41,0.0,Stimuli/Blank.png,0,0,0.0,0,92,92,92,,,,,,,,,,,,,49.759302300000854,0.009302300000854302,None,,76.74242400000367,76.74242400000367,76.74242400000367,76.74242400000367,76.74242400000367,76.74242400000367,76.74242400000367,76.74242400000367,76.74242400000367,76.74242400000367,003,P022,2025_May_13_1713,ConditionRich,2021.2.3,59.92272365487598,
50.0,50.75,15,0.75,Stimuli/P016/sun_bvfcijehgdsndfbg.jpg,0,0,0.0,0,93,93,93,,,,,,,,,,,,,50.00876319999952,0.00876319999952102,None,,76.99265520000336,76.99265520000336,76.99265520000336,76.99265520000336,76.99265520000336,76.99265520000336,76.99265520000336,76.99265520000336,76.99265520000336,76.99265520000336,003,P022,2025_May_13_1713,ConditionRich,2021.2.3,59.92272365487598,
50.75,51.0,41,0.0,Stimuli/Blank.png,0,0,0.0,0,94,94,94,,,,,,,,,,,,,50.759970999999496,0.009970999999495689,None,,77.74331279999751,77.74331279999751,77.74331279999751,77.74331279999751,77.74331279999751,77.74331279999751,77.74331279999751,77.74331279999751,77.74331279999751,77.74331279999751,003,P022,2025_May_13_1713,ConditionRich,2021.2.3,59.92272365487598,
51.0,51.75,15,0.75,Stimuli/P016/sun_bvfcijehgdsndfbg.jpg,0,0,0.0,0,95,95,95,,,,,,,,,,,,,51.00973949999752,0.009739499997522216,None,,77.99354049999965,77.99354049999965,77.99354049999965,77.99354049999965,77.99354049999965,77.99354049999965,77.99354049999965,77.99354049999965,77.99354049999965,77.99354049999965,003,P022,2025_May_13_1713,ConditionRich,2021.2.3,59.92272365487598,
51.75,52.0,41,0.0,Stimuli/Blank.png,0,0,0.0,0,96,96,96,,,,,,,,,,,,,51.76318399999582,0.01318399999581743,None,,78.76089240000147,78.76089240000147,78.76089240000147,78.76089240000147,78.76089240000147,78.76089240000147,78.76089240000147,78.76089240000147,78.76089240000147,78.76089240000147,003,P022,2025_May_13_1713,ConditionRich,2021.2.3,59.92272365487598,
52.0,52.75,29,0.75,Stimuli/P016/things_mouse1_08s.jpg,0,0,0.0,0,97,97,97,,,,,,,,,,,,,52.02799360000063,0.02799360000062734,None,,79.02778679999756,79.02778679999756,79.02778679999756,79.02778679999756,79.02778679999756,79.02778679999756,79.02778679999756,79.02778679999756,79.02778679999756,79.02778679999756,003,P022,2025_May_13_1713,ConditionRich,2021.2.3,59.92272365487598,
52.75,53.0,41,0.0,Stimuli/Blank.png,0,0,0.0,0,98,98,98,,,,,,,,,,,,,52.77798079999775,0.027980799997749273,None,,79.7617698000031,79.7617698000031,79.7617698000031,79.7617698000031,79.7617698000031,79.7617698000031,79.7617698000031,79.7617698000031,79.7617698000031,79.7617698000031,003,P022,2025_May_13_1713,ConditionRich,2021.2.3,59.92272365487598,
53.0,53.75,29,0.75,Stimuli/P016/things_mouse1_08s.jpg,0,0,0.0,0,99,99,99,,,,,,,,,,,,,53.01374219999707,0.013742199997068383,None,,80.01198590000422,80.01198590000422,80.01198590000422,80.01198590000422,80.01198590000422,80.01198590000422,80.01198590000422,80.01198590000422,80.01198590000422,80.01198590000422,003,P022,2025_May_13_1713,ConditionRich,2021.2.3,59.92272365487598,
53.75,54.0,41,0.0,Stimuli/Blank.png,0,0,0.0,0,100,100,100,,,,,,,,,,,,,53.77934899999673,0.029348999996727798,None,,80.76264559999981,80.76264559999981,80.76264559999981,80.76264559999981,80.76264559999981,80.76264559999981,80.76264559999981,80.76264559999981,80.76264559999981,80.76264559999981,003,P022,2025_May_13_1713,ConditionRich,2021.2.3,59.92272365487598,
54.0,54.75,29,0.75,Stimuli/P016/things_mouse1_08s.jpg,0,0,0.0,0,101,101,101,,,,,,,,,,,,,54.01288370000111,0.01288370000111172,None,,80.99620210000285,80.99620210000285,80.99620210000285,80.99620210000285,80.99620210000285,80.99620210000285,80.99620210000285,80.99620210000285,80.99620210000285,80.99620210000285,003,P022,2025_May_13_1713,ConditionRich,2021.2.3,59.92272365487598,
54.75,55.0,41,0.0,Stimuli/Blank.png,0,0,0.0,0,102,102,102,,,,,,,,,,,,,54.7631681999992,0.013168199999199715,None,,81.74685110000428,81.74685110000428,81.74685110000428,81.74685110000428,81.74685110000428,81.74685110000428,81.74685110000428,81.74685110000428,81.74685110000428,81.74685110000428,003,P022,2025_May_13_1713,ConditionRich,2021.2.3,59.92272365487598,
55.0,55.75,29,0.75,Stimuli/P016/things_mouse1_08s.jpg,0,0,0.0,0,103,103,103,,,,,,,,,,,,,55.013216399995144,0.013216399995144457,None,,81.99707840000337,81.99707840000337,81.99707840000337,81.99707840000337,81.99707840000337,81.99707840000337,81.99707840000337,81.99707840000337,81.99707840000337,81.99707840000337,003,P022,2025_May_13_1713,ConditionRich,2021.2.3,59.92272365487598,
55.75,56.0,41,0.0,Stimuli/Blank.png,0,0,0.0,0,104,104,104,,,,,,,,,,,,,55.7646808999998,0.014680899999802932,None,,82.74773899999855,82.74773899999855,82.74773899999855,82.74773899999855,82.74773899999855,82.74773899999855,82.74773899999855,82.74773899999855,82.74773899999855,82.74773899999855,003,P022,2025_May_13_1713,ConditionRich,2021.2.3,59.92272365487598,
56.0,56.75,19,0.75,Stimuli/P016/sun_bzhwvgrzvttqoexa.jpg,1,0,0.75,0,105,105,105,,,,,,,,,,,,,56.01468010000099,0.014680100000987295,1,0.4833217999985209,82.99795240000094,82.99795240000094,82.99795240000094,82.99795240000094,82.99795240000094,82.99795240000094,82.99795240000094,83.7319370999976,82.99795240000094,82.99795240000094,003,P022,2025_May_13_1713,ConditionRich,2021.2.3,59.92272365487598,
56.75,57.0,41,0.0,Stimuli/Blank.png,0,0,0.0,0,106,106,106,,,,,,,,,,,,,56.7646878999949,0.014687899994896725,None,,83.74862070000381,83.74862070000381,83.74862070000381,83.74862070000381,83.74862070000381,83.74862070000381,83.74862070000381,83.74862070000381,83.74862070000381,83.74862070000381,003,P022,2025_May_13_1713,ConditionRich,2021.2.3,59.92272365487598,
57.0,57.75,19,0.75,Stimuli/P016/sun_bzhwvgrzvttqoexa.jpg,0,0,0.0,0,107,107,107,,,,,,,,,,,,,57.015825599999516,0.01582559999951627,None,,84.01552790000278,84.01552790000278,84.01552790000278,84.01552790000278,84.01552790000278,84.01552790000278,84.01552790000278,84.01552790000278,84.01552790000278,84.01552790000278,003,P022,2025_May_13_1713,ConditionRich,2021.2.3,59.92272365487598,
57.75,58.0,41,0.0,Stimuli/Blank.png,0,0,0.0,0,108,108,108,,,,,,,,,,,,,57.76567729999806,0.015677299998060334,None,,84.74950080000417,84.74950080000417,84.74950080000417,84.74950080000417,84.74950080000417,84.74950080000417,84.74950080000417,84.74950080000417,84.74950080000417,84.74950080000417,003,P022,2025_May_13_1713,ConditionRich,2021.2.3,59.92272365487598,
58.0,58.75,19,0.75,Stimuli/P016/sun_bzhwvgrzvttqoexa.jpg,0,0,0.0,0,109,109,109,,,,,,,,,,,,,57.99935089999781,-0.0006491000021924265,None,,84.98301450000145,84.98301450000145,84.98301450000145,84.98301450000145,84.98301450000145,84.98301450000145,84.98301450000145,84.98301450000145,84.98301450000145,84.98301450000145,003,P022,2025_May_13_1713,ConditionRich,2021.2.3,59.92272365487598,
58.75,59.0,41,0.0,Stimuli/Blank.png,0,0,0.0,0,110,110,110,,,,,,,,,,,,,58.75053029999981,0.0005302999998093583,None,,85.73370589999831,85.73370589999831,85.73370589999831,85.73370589999831,85.73370589999831,85.73370589999831,85.73370589999831,85.73370589999831,85.73370589999831,85.73370589999831,003,P022,2025_May_13_1713,ConditionRich,2021.2.3,59.92272365487598,
59.0,59.75,19,0.75,Stimuli/P016/sun_bzhwvgrzvttqoexa.jpg,0,0,0.0,0,111,111,111,,,,,,,,,,,,,58.99997379999695,-2.6200003048870713e-05,None,,85.98392310000054,85.98392310000054,85.98392310000054,85.98392310000054,85.98392310000054,85.98392310000054,85.98392310000054,85.98392310000054,85.98392310000054,85.98392310000054,003,P022,2025_May_13_1713,ConditionRich,2021.2.3,59.92272365487598,
59.75,60.0,41,0.0,Stimuli/Blank.png,0,0,0.0,0,112,112,112,,,,,,,,,,,,,59.750643799998215,0.0006437999982153997,None,,86.73459860000003,86.73459860000003,86.73459860000003,86.73459860000003,86.73459860000003,86.73459860000003,86.73459860000003,86.73459860000003,86.73459860000003,86.73459860000003,003,P022,2025_May_13_1713,ConditionRich,2021.2.3,59.92272365487598,
60.0,60.75,28,0.75,Stimuli/P016/things_latte_08s.jpg,0,0,0.0,0,113,113,113,,,,,,,,,,,,,60.001014399997075,0.0010143999970750883,None,,87.00149640000018,87.00149640000018,87.00149640000018,87.00149640000018,87.00149640000018,87.00149640000018,87.00149640000018,87.00149640000018,87.00149640000018,87.00149640000018,003,P022,2025_May_13_1713,ConditionRich,2021.2.3,59.92272365487598,
60.75,61.0,41,0.0,Stimuli/Blank.png,0,0,0.0,0,114,114,114,,,,,,,,,,,,,60.76889690000098,0.018896900000981987,None,,87.75217320000229,87.75217320000229,87.75217320000229,87.75217320000229,87.75217320000229,87.75217320000229,87.75217320000229,87.75217320000229,87.75217320000229,87.75217320000229,003,P022,2025_May_13_1713,ConditionRich,2021.2.3,59.92272365487598,
61.0,61.75,28,0.75,Stimuli/P016/things_latte_08s.jpg,0,0,0.0,0,115,115,115,,,,,,,,,,,,,61.00262229999498,0.0026222999949823134,None,,88.00239980000333,88.00239980000333,88.00239980000333,88.00239980000333,88.00239980000333,88.00239980000333,88.00239980000333,88.00239980000333,88.00239980000333,88.00239980000333,003,P022,2025_May_13_1713,ConditionRich,2021.2.3,59.92272365487598,
61.75,62.0,41,0.0,Stimuli/Blank.png,0,0,0.0,0,116,116,116,,,,,,,,,,,,,61.76923939999688,0.019239399996877182,None,,88.75305120000121,88.75305120000121,88.75305120000121,88.75305120000121,88.75305120000121,88.75305120000121,88.75305120000121,88.75305120000121,88.75305120000121,88.75305120000121,003,P022,2025_May_13_1713,ConditionRich,2021.2.3,59.92272365487598,
62.0,62.75,28,0.75,Stimuli/P016/things_latte_08s.jpg,0,0,0.0,0,117,117,117,,,,,,,,,,,,,62.00417379999999,0.004173799999989569,None,,89.0033076999971,89.0033076999971,89.0033076999971,89.0033076999971,89.0033076999971,89.0033076999971,89.0033076999971,89.0033076999971,89.0033076999971,89.0033076999971,003,P022,2025_May_13_1713,ConditionRich,2021.2.3,59.92272365487598,
62.75,63.0,41,0.0,Stimuli/Blank.png,0,0,0.0,0,118,118,118,,,,,,,,,,,,,62.770698299995274,0.020698299995274283,None,,89.75392229999852,89.75392229999852,89.75392229999852,89.75392229999852,89.75392229999852,89.75392229999852,89.75392229999852,89.75392229999852,89.75392229999852,89.75392229999852,003,P022,2025_May_13_1713,ConditionRich,2021.2.3,59.92272365487598,
63.0,63.75,28,0.75,Stimuli/P016/things_latte_08s.jpg,0,0,0.0,0,119,119,119,,,,,,,,,,,,,63.005094899999676,0.005094899999676272,None,,90.0041612999994,90.0041612999994,90.0041612999994,90.0041612999994,90.0041612999994,90.0041612999994,90.0041612999994,90.0041612999994,90.0041612999994,90.0041612999994,003,P022,2025_May_13_1713,ConditionRich,2021.2.3,59.92272365487598,
63.75,64.0,41,0.0,Stimuli/Blank.png,0,0,0.0,0,120,120,120,,,,,,,,,,,,,63.773334099998465,0.023334099998464808,None,,90.77150470000197,90.77150470000197,90.77150470000197,90.77150470000197,90.77150470000197,90.77150470000197,90.77150470000197,90.77150470000197,90.77150470000197,90.77150470000197,003,P022,2025_May_13_1713,ConditionRich,2021.2.3,59.92272365487598,
64.0,64.75,37,0.75,Stimuli/P016/things_swizzle_stick_08s.jpg,0,0,0.0,0,121,121,121,,,,,,,,,,,,,64.02120730000024,0.021207300000241958,None,,91.02175269999861,91.02175269999861,91.02175269999861,91.02175269999861,91.02175269999861,91.02175269999861,91.02175269999861,91.02175269999861,91.02175269999861,91.02175269999861,003,P022,2025_May_13_1713,ConditionRich,2021.2.3,59.92272365487598,
64.75,65.0,41,0.0,Stimuli/Blank.png,0,0,0.0,0,122,122,122,,,,,,,,,,,,,64.77483099999517,0.024830999995174352,None,,91.7723857000019,91.7723857000019,91.7723857000019,91.7723857000019,91.7723857000019,91.7723857000019,91.7723857000019,91.7723857000019,91.7723857000019,91.7723857000019,003,P022,2025_May_13_1713,ConditionRich,2021.2.3,59.92272365487598,
65.0,65.75,37,0.75,Stimuli/P016/things_swizzle_stick_08s.jpg,0,0,0.0,0,123,123,123,,,,,,,,,,,,,65.02280909999536,0.02280909999535652,None,,92.00592860000324,92.00592860000324,92.00592860000324,92.00592860000324,92.00592860000324,92.00592860000324,92.00592860000324,92.00592860000324,92.00592860000324,92.00592860000324,003,P022,2025_May_13_1713,ConditionRich,2021.2.3,59.92272365487598,
65.75,66.0,41,0.0,Stimuli/Blank.png,0,0,0.0,0,124,124,124,,,,,,,,,,,,,65.75694939999812,0.006949399998120498,None,,92.7399213000026,92.7399213000026,92.7399213000026,92.7399213000026,92.7399213000026,92.7399213000026,92.7399213000026,92.7399213000026,92.7399213000026,92.7399213000026,003,P022,2025_May_13_1713,ConditionRich,2021.2.3,59.92272365487598,
66.0,66.75,37,0.75,Stimuli/P016/things_swizzle_stick_08s.jpg,0,0,0.0,0,125,125,125,,,,,,,,,,,,,66.00834369999939,0.008343699999386445,None,,93.00678080000216,93.00678080000216,93.00678080000216,93.00678080000216,93.00678080000216,93.00678080000216,93.00678080000216,93.00678080000216,93.00678080000216,93.00678080000216,003,P022,2025_May_13_1713,ConditionRich,2021.2.3,59.92272365487598,
66.75,67.0,41,0.0,Stimuli/Blank.png,0,0,0.0,0,126,126,126,,,,,,,,,,,,,66.77397899999778,0.023978999997780193,None,,93.7574614000041,93.7574614000041,93.7574614000041,93.7574614000041,93.7574614000041,93.7574614000041,93.7574614000041,93.7574614000041,93.7574614000041,93.7574614000041,003,P022,2025_May_13_1713,ConditionRich,2021.2.3,59.92272365487598,
67.0,67.75,37,0.75,Stimuli/P016/things_swizzle_stick_08s.jpg,0,0,0.0,0,127,127,127,,,,,,,,,,,,,67.00730749999639,0.007307499996386468,None,,93.99100539999927,93.99100539999927,93.99100539999927,93.99100539999927,93.99100539999927,93.99100539999927,93.99100539999927,93.99100539999927,93.99100539999927,93.99100539999927,003,P022,2025_May_13_1713,ConditionRich,2021.2.3,59.92272365487598,
67.75,68.0,41,0.0,Stimuli/Blank.png,0,0,0.0,0,128,128,128,,,,,,,,,,,,,67.7582842999982,0.00828429999819491,None,,94.74166839999816,94.74166839999816,94.74166839999816,94.74166839999816,94.74166839999816,94.74166839999816,94.74166839999816,94.74166839999816,94.74166839999816,94.74166839999816,003,P022,2025_May_13_1713,ConditionRich,2021.2.3,59.92272365487598,
68.0,68.75,7,0.75,Stimuli/P016/sun_aqdfrmtvewaapuqs.jpg,0,0,0.0,0,129,129,129,,,,,,,,,,,,,68.00881369999843,0.008813699998427182,None,,94.9919022000031,94.9919022000031,94.9919022000031,94.9919022000031,94.9919022000031,94.9919022000031,94.9919022000031,94.9919022000031,94.9919022000031,94.9919022000031,003,P022,2025_May_13_1713,ConditionRich,2021.2.3,59.92272365487598,
68.75,69.0,41,0.0,Stimuli/Blank.png,0,0,0.0,0,130,130,130,,,,,,,,,,,,,68.75939649999782,0.009396499997819774,None,,95.74255529999937,95.74255529999937,95.74255529999937,95.74255529999937,95.74255529999937,95.74255529999937,95.74255529999937,95.74255529999937,95.74255529999937,95.74255529999937,003,P022,2025_May_13_1713,ConditionRich,2021.2.3,59.92272365487598,
69.0,69.75,7,0.75,Stimuli/P016/sun_aqdfrmtvewaapuqs.jpg,0,0,0.0,0,131,131,131,,,,,,,,,,,,,69.00935290000052,0.009352900000521913,None,,95.99277699999948,95.99277699999948,95.99277699999948,95.99277699999948,95.99277699999948,95.99277699999948,95.99277699999948,95.99277699999948,95.99277699999948,95.99277699999948,003,P022,2025_May_13_1713,ConditionRich,2021.2.3,59.92272365487598,
69.75,70.0,41,0.0,Stimuli/Blank.png,0,0,0.0,0,132,132,132,,,,,,,,,,,,,69.75973339999473,0.009733399994729552,None,,96.74344669999846,96.74344669999846,96.74344669999846,96.74344669999846,96.74344669999846,96.74344669999846,96.74344669999846,96.74344669999846,96.74344669999846,96.74344669999846,003,P022,2025_May_13_1713,ConditionRich,2021.2.3,59.92272365487598,
70.0,70.75,7,0.75,Stimuli/P016/sun_aqdfrmtvewaapuqs.jpg,0,0,0.0,0,133,133,133,,,,,,,,,,,,,70.01038139999582,0.010381399995821994,None,,97.01034539999819,97.01034539999819,97.01034539999819,97.01034539999819,97.01034539999819,97.01034539999819,97.01034539999819,97.01034539999819,97.01034539999819,97.01034539999819,003,P022,2025_May_13_1713,ConditionRich,2021.2.3,59.92272365487598,
70.75,71.0,41,0.0,Stimuli/Blank.png,0,0,0.0,0,134,134,134,,,,,,,,,,,,,70.77799170000071,0.027991700000711717,None,,97.76100459999725,97.76100459999725,97.76100459999725,97.76100459999725,97.76100459999725,97.76100459999725,97.76100459999725,97.76100459999725,97.76100459999725,97.76100459999725,003,P022,2025_May_13_1713,ConditionRich,2021.2.3,59.92272365487598,
71.0,71.75,7,0.75,Stimuli/P016/sun_aqdfrmtvewaapuqs.jpg,0,0,0.0,0,135,135,135,,,,,,,,,,,,,71.01061299999856,0.010612999998556916,None,,97.99456030000147,97.99456030000147,97.99456030000147,97.99456030000147,97.99456030000147,97.99456030000147,97.99456030000147,97.99456030000147,97.99456030000147,97.99456030000147,003,P022,2025_May_13_1713,ConditionRich,2021.2.3,59.92272365487598,
71.75,72.0,41,0.0,Stimuli/Blank.png,0,0,0.0,0,136,136,136,,,,,,,,,,,,,71.76357749999443,0.013577499994426034,None,,98.76189400000294,98.76189400000294,98.76189400000294,98.76189400000294,98.76189400000294,98.76189400000294,98.76189400000294,98.76189400000294,98.76189400000294,98.76189400000294,003,P022,2025_May_13_1713,ConditionRich,2021.2.3,59.92272365487598,
72.0,72.75,10,0.75,Stimuli/P016/sun_bfojpvrlsrtfyzio.jpg,0,0,0.0,0,137,137,137,,,,,,,,,,,,,72.02844719999848,0.028447199998481665,None,,99.01215219999722,99.01215219999722,99.01215219999722,99.01215219999722,99.01215219999722,99.01215219999722,99.01215219999722,99.01215219999722,99.01215219999722,99.01215219999722,003,P022,2025_May_13_1713,ConditionRich,2021.2.3,59.92272365487598,
72.75,73.0,41,0.0,Stimuli/Blank.png,0,0,0.0,0,138,138,138,,,,,,,,,,,,,72.76285439999629,0.012854399996285792,None,,99.7461220000041,99.7461220000041,99.7461220000041,99.7461220000041,99.7461220000041,99.7461220000041,99.7461220000041,99.7461220000041,99.7461220000041,99.7461220000041,003,P022,2025_May_13_1713,ConditionRich,2021.2.3,59.92272365487598,
73.0,73.75,10,0.75,Stimuli/P016/sun_bfojpvrlsrtfyzio.jpg,0,0,0.0,0,139,139,139,,,,,,,,,,,,,73.0129866999996,0.012986699999601115,None,,99.99632150000252,99.99632150000252,99.99632150000252,99.99632150000252,99.99632150000252,99.99632150000252,99.99632150000252,99.99632150000252,99.99632150000252,99.99632150000252,003,P022,2025_May_13_1713,ConditionRich,2021.2.3,59.92272365487598,
73.75,74.0,41,0.0,Stimuli/Blank.png,0,0,0.0,0,140,140,140,,,,,,,,,,,,,73.76404889999685,0.014048899996851105,None,,100.74698640000133,100.74698640000133,100.74698640000133,100.74698640000133,100.74698640000133,100.74698640000133,100.74698640000133,100.74698640000133,100.74698640000133,100.74698640000133,003,P022,2025_May_13_1713,ConditionRich,2021.2.3,59.92272365487598,
74.0,74.75,10,0.75,Stimuli/P016/sun_bfojpvrlsrtfyzio.jpg,0,0,0.0,0,141,141,141,,,,,,,,,,,,,74.01398359999439,0.013983599994389806,None,,100.99720250000246,100.99720250000246,100.99720250000246,100.99720250000246,100.99720250000246,100.99720250000246,100.99720250000246,100.99720250000246,100.99720250000246,100.99720250000246,003,P022,2025_May_13_1713,ConditionRich,2021.2.3,59.92272365487598,
74.75,75.0,41,0.0,Stimuli/Blank.png,0,0,0.0,0,142,142,142,,,,,,,,,,,,,74.76414639999712,0.014146399997116532,None,,101.74786689999746,101.74786689999746,101.74786689999746,101.74786689999746,101.74786689999746,101.74786689999746,101.74786689999746,101.74786689999746,101.74786689999746,101.74786689999746,003,P022,2025_May_13_1713,ConditionRich,2021.2.3,59.92272365487598,
75.0,75.75,10,0.75,Stimuli/P016/sun_bfojpvrlsrtfyzio.jpg,0,0,0.0,0,143,143,143,,,,,,,,,,,,,75.01496159999806,0.014961599998059683,None,,101.99807980000332,101.99807980000332,101.99807980000332,101.99807980000332,101.99807980000332,101.99807980000332,101.99807980000332,101.99807980000332,101.99807980000332,101.99807980000332,003,P022,2025_May_13_1713,ConditionRich,2021.2.3,59.92272365487598,
75.75,76.0,41,0.0,Stimuli/Blank.png,0,0,0.0,0,144,144,144,,,,,,,,,,,,,75.76473940000142,0.01473940000141738,None,,102.74875540000357,102.74875540000357,102.74875540000357,102.74875540000357,102.74875540000357,102.74875540000357,102.74875540000357,102.74875540000357,102.74875540000357,102.74875540000357,003,P022,2025_May_13_1713,ConditionRich,2021.2.3,59.92272365487598,
76.0,76.75,17,0.75,Stimuli/P016/sun_bxhbltvqnpaciuzt.jpg,1,0,0.75,0,145,145,145,,,,,,,,,,,,,76.01581499999884,0.015814999998838175,1,0.3876864999983809,103.01565629999823,103.01565629999823,103.01565629999823,103.01565629999823,103.01565629999823,103.01565629999823,103.01565629999823,103.73305049999908,103.01565629999823,103.01565629999823,003,P022,2025_May_13_1713,ConditionRich,2021.2.3,59.92272365487598,
76.75,77.0,41,0.0,Stimuli/Blank.png,0,0,0.0,0,146,146,146,,,,,,,,,,,,,76.76898390000133,0.018983900001330767,None,,103.76630970000406,103.76630970000406,103.76630970000406,103.76630970000406,103.76630970000406,103.76630970000406,103.76630970000406,103.76630970000406,103.76630970000406,103.76630970000406,003,P022,2025_May_13_1713,ConditionRich,2021.2.3,59.92272365487598,
77.0,77.75,17,0.75,Stimuli/P016/sun_bxhbltvqnpaciuzt.jpg,0,0,0.0,0,147,147,147,,,,,,,,,,,,,77.01935070000036,0.01935070000035921,None,,104.01654930000223,104.01654930000223,104.01654930000223,104.01654930000223,104.01654930000223,104.01654930000223,104.01654930000223,104.01654930000223,104.01654930000223,104.01654930000223,003,P022,2025_May_13_1713,ConditionRich,2021.2.3,59.92272365487598,
77.75,78.0,41,0.0,Stimuli/Blank.png,0,0,0.0,0,148,148,148,,,,,,,,,,,,,77.76859469999908,0.018594699999084696,None,,104.76721830000315,104.76721830000315,104.76721830000315,104.76721830000315,104.76721830000315,104.76721830000315,104.76721830000315,104.76721830000315,104.76721830000315,104.76721830000315,003,P022,2025_May_13_1713,ConditionRich,2021.2.3,59.92272365487598,
78.0,78.75,17,0.75,Stimuli/P016/sun_bxhbltvqnpaciuzt.jpg,0,0,0.0,0,149,149,149,,,,,,,,,,,,,78.01877840000088,0.018778400000883266,None,,105.01742229999945,105.01742229999945,105.01742229999945,105.01742229999945,105.01742229999945,105.01742229999945,105.01742229999945,105.01742229999945,105.01742229999945,105.01742229999945,003,P022,2025_May_13_1713,ConditionRich,2021.2.3,59.92272365487598,
78.75,79.0,41,0.0,Stimuli/Blank.png,0,0,0.0,0,150,150,150,,,,,,,,,,,,,78.76782409999578,0.017824099995777942,None,,105.75140819999797,105.75140819999797,105.75140819999797,105.75140819999797,105.75140819999797,105.75140819999797,105.75140819999797,105.75140819999797,105.75140819999797,105.75140819999797,003,P022,2025_May_13_1713,ConditionRich,2021.2.3,59.92272365487598,
79.0,79.75,17,0.75,Stimuli/P016/sun_bxhbltvqnpaciuzt.jpg,0,0,0.0,0,151,151,151,,,,,,,,,,,,,79.00172960000054,0.0017296000005444512,None,,106.00162850000197,106.00162850000197,106.00162850000197,106.00162850000197,106.00162850000197,106.00162850000197,106.00162850000197,106.00162850000197,106.00162850000197,106.00162850000197,003,P022,2025_May_13_1713,ConditionRich,2021.2.3,59.92272365487598,
79.75,80.0,41,0.0,Stimuli/Blank.png,0,0,0.0,0,152,152,152,,,,,,,,,,,,,79.76884759999666,0.0188475999966613,None,,106.75229129999934,106.75229129999934,106.75229129999934,106.75229129999934,106.75229129999934,106.75229129999934,106.75229129999934,106.75229129999934,106.75229129999934,106.75229129999934,003,P022,2025_May_13_1713,ConditionRich,2021.2.3,59.92272365487598,
80.0,80.75,4,0.75,Stimuli/P016/sun_aiwuqxdqzftsfyeg.jpg,0,0,0.0,0,153,153,153,,,,,,,,,,,,,80.00273780000134,0.002737800001341384,None,,107.00252919999912,107.00252919999912,107.00252919999912,107.00252919999912,107.00252919999912,107.00252919999912,107.00252919999912,107.00252919999912,107.00252919999912,107.00252919999912,003,P022,2025_May_13_1713,ConditionRich,2021.2.3,59.92272365487598,
80.75,81.0,41,0.0,Stimuli/Blank.png,0,0,0.0,0,154,154,154,,,,,,,,,,,,,80.77023299999564,0.020232999995641876,None,,107.75317039999936,107.75317039999936,107.75317039999936,107.75317039999936,107.75317039999936,107.75317039999936,107.75317039999936,107.75317039999936,107.75317039999936,107.75317039999936,003,P022,2025_May_13_1713,ConditionRich,2021.2.3,59.92272365487598,
81.0,81.75,4,0.75,Stimuli/P016/sun_aiwuqxdqzftsfyeg.jpg,0,0,0.0,0,155,155,155,,,,,,,,,,,,,81.00281410000025,0.002814100000250619,None,,107.98671789999935,107.98671789999935,107.98671789999935,107.98671789999935,107.98671789999935,107.98671789999935,107.98671789999935,107.98671789999935,107.98671789999935,107.98671789999935,003,P022,2025_May_13_1713,ConditionRich,2021.2.3,59.92272365487598,
81.75,82.0,41,0.0,Stimuli/Blank.png,0,0,0.0,0,156,156,156,,,,,,,,,,,,,81.75409850000142,0.00409850000141887,None,,108.73743149999791,108.73743149999791,108.73743149999791,108.73743149999791,108.73743149999791,108.73743149999791,108.73743149999791,108.73743149999791,108.73743149999791,108.73743149999791,003,P022,2025_May_13_1713,ConditionRich,2021.2.3,59.92272365487598,
82.0,82.75,4,0.75,Stimuli/P016/sun_aiwuqxdqzftsfyeg.jpg,0,0,0.0,0,157,157,157,,,,,,,,,,,,,82.00442420000036,0.004424200000357814,None,,109.0043364000012,109.0043364000012,109.0043364000012,109.0043364000012,109.0043364000012,109.0043364000012,109.0043364000012,109.0043364000012,109.0043364000012,109.0043364000012,003,P022,2025_May_13_1713,ConditionRich,2021.2.3,59.92272365487598,
82.75,83.0,41,0.0,Stimuli/Blank.png,0,0,0.0,0,158,158,158,,,,,,,,,,,,,82.77334719999635,0.023347199996351264,None,,109.77162639999733,109.77162639999733,109.77162639999733,109.77162639999733,109.77162639999733,109.77162639999733,109.77162639999733,109.77162639999733,109.77162639999733,109.77162639999733,003,P022,2025_May_13_1713,ConditionRich,2021.2.3,59.92272365487598,
83.0,83.75,4,0.75,Stimuli/P016/sun_aiwuqxdqzftsfyeg.jpg,0,0,0.0,0,159,159,159,,,,,,,,,,,,,83.02359749999596,0.02359749999595806,None,,110.02185979999922,110.02185979999922,110.02185979999922,110.02185979999922,110.02185979999922,110.02185979999922,110.02185979999922,110.02185979999922,110.02185979999922,110.02185979999922,003,P022,2025_May_13_1713,ConditionRich,2021.2.3,59.92272365487598,
83.75,84.0,41,0.0,Stimuli/Blank.png,0,0,0.0,0,160,160,160,,,,,,,,,,,,,83.77235259999725,0.022352599997248035,None,,110.7558319000018,110.7558319000018,110.7558319000018,110.7558319000018,110.7558319000018,110.7558319000018,110.7558319000018,110.7558319000018,110.7558319000018,110.7558319000018,003,P022,2025_May_13_1713,ConditionRich,2021.2.3,59.92272365487598,
84.0,100.0,0,0.0,Stimuli/Blank.png,1,6,6.75,0,161,161,161,,,,,,,,,,,,,84.00540629999887,0.0054062999988673255,1,6.380192900003749,110.98938079999789,110.98938079999789,110.98938079999789,110.98938079999789,110.98938079999789,110.98938079999789,116.97796119999839,117.72870810000313,110.98938079999789,110.98938079999789,003,P022,2025_May_13_1713,ConditionRich,2021.2.3,59.92272365487598,
100.0,100.75,12,0.75,Stimuli/P016/sun_boffixsnbbloarty.jpg,0,0,0.0,0,162,162,162,,,,,,,,,,,,,100.00407989999803,0.004079899998032488,None,,127.00352959999873,127.00352959999873,127.00352959999873,127.00352959999873,127.00352959999873,127.00352959999873,127.00352959999873,127.00352959999873,127.00352959999873,127.00352959999873,003,P022,2025_May_13_1713,ConditionRich,2021.2.3,59.92272365487598,
100.75,101.0,41,0.0,Stimuli/Blank.png,0,0,0.0,0,163,163,163,,,,,,,,,,,,,100.77102949999971,0.021029499999713153,None,,127.75429989999975,127.75429989999975,127.75429989999975,127.75429989999975,127.75429989999975,127.75429989999975,127.75429989999975,127.75429989999975,127.75429989999975,127.75429989999975,003,P022,2025_May_13_1713,ConditionRich,2021.2.3,59.92272365487598,
101.0,101.75,12,0.75,Stimuli/P016/sun_boffixsnbbloarty.jpg,0,0,0.0,0,164,164,164,,,,,,,,,,,,,101.00392509999801,0.003925099998014048,None,,127.9877295000042,127.9877295000042,127.9877295000042,127.9877295000042,127.9877295000042,127.9877295000042,127.9877295000042,127.9877295000042,127.9877295000042,127.9877295000042,003,P022,2025_May_13_1713,ConditionRich,2021.2.3,59.92272365487598,
101.75,102.0,41,0.0,Stimuli/Blank.png,0,0,0.0,0,165,165,165,,,,,,,,,,,,,101.7554067999954,0.0054067999953986146,None,,128.73838740000065,128.73838740000065,128.73838740000065,128.73838740000065,128.73838740000065,128.73838740000065,128.73838740000065,128.73838740000065,128.73838740000065,128.73838740000065,003,P022,2025_May_13_1713,ConditionRich,2021.2.3,59.92272365487598,
102.0,102.75,12,0.75,Stimuli/P016/sun_boffixsnbbloarty.jpg,0,0,0.0,0,166,166,166,,,,,,,,,,,,,102.00544249999803,0.005442499998025596,None,,129.0053098999997,129.0053098999997,129.0053098999997,129.0053098999997,129.0053098999997,129.0053098999997,129.0053098999997,129.0053098999997,129.0053098999997,129.0053098999997,003,P022,2025_May_13_1713,ConditionRich,2021.2.3,59.92272365487598,
102.75,103.0,41,0.0,Stimuli/Blank.png,0,0,0.0,0,167,167,167,,,,,,,,,,,,,102.7732818000004,0.023281800000404473,None,,129.75596490000316,129.75596490000316,129.75596490000316,129.75596490000316,129.75596490000316,129.75596490000316,129.75596490000316,129.75596490000316,129.75596490000316,129.75596490000316,003,P022,2025_May_13_1713,ConditionRich,2021.2.3,59.92272365487598,
103.0,103.75,12,0.75,Stimuli/P016/sun_boffixsnbbloarty.jpg,0,0,0.0,0,168,168,168,,,,,,,,,,,,,103.0057009000011,0.005700900001102127,None,,129.98950689999765,129.98950689999765,129.98950689999765,129.98950689999765,129.98950689999765,129.98950689999765,129.98950689999765,129.98950689999765,129.98950689999765,129.98950689999765,003,P022,2025_May_13_1713,ConditionRich,2021.2.3,59.92272365487598,
103.75,104.0,41,0.0,Stimuli/Blank.png,0,0,0.0,0,169,169,169,,,,,,,,,,,,,103.75833959999727,0.008339599997270852,None,,130.7402077000006,130.7402077000006,130.7402077000006,130.7402077000006,130.7402077000006,130.7402077000006,130.7402077000006,130.7402077000006,130.7402077000006,130.7402077000006,003,P022,2025_May_13_1713,ConditionRich,2021.2.3,59.92272365487598,
104.0,104.75,39,0.75,Stimuli/P016/things_window_08s.jpg,0,0,0.0,0,170,170,170,,,,,,,,,,,,,104.00771199999872,0.007711999998718966,None,,131.00707479999983,131.00707479999983,131.00707479999983,131.00707479999983,131.00707479999983,131.00707479999983,131.00707479999983,131.00707479999983,131.00707479999983,131.00707479999983,003,P022,2025_May_13_1713,ConditionRich,2021.2.3,59.92272365487598,
104.75,105.0,41,0.0,Stimuli/Blank.png,0,0,0.0,0,171,171,171,,,,,,,,,,,,,104.77447240000038,0.024472400000377093,None,,131.75775650000287,131.75775650000287,131.75775650000287,131.75775650000287,131.75775650000287,131.75775650000287,131.75775650000287,131.75775650000287,131.75775650000287,131.75775650000287,003,P022,2025_May_13_1713,ConditionRich,2021.2.3,59.92272365487598,
105.0,105.75,39,0.75,Stimuli/P016/things_window_08s.jpg,0,0,0.0,0,172,172,172,,,,,,,,,,,,,105.00845789999585,0.008457899995846674,None,,131.99127939999744,131.99127939999744,131.99127939999744,131.99127939999744,131.99127939999744,131.99127939999744,131.99127939999744,131.99127939999744,131.99127939999744,131.99127939999744,003,P022,2025_May_13_1713,ConditionRich,2021.2.3,59.92272365487598,
105.75,106.0,41,0.0,Stimuli/Blank.png,0,0,0.0,0,173,173,173,,,,,,,,,,,,,105.7587538000007,0.00875380000070436,None,,132.7419413000025,132.7419413000025,132.7419413000025,132.7419413000025,132.7419413000025,132.7419413000025,132.7419413000025,132.7419413000025,132.7419413000025,132.7419413000025,003,P022,2025_May_13_1713,ConditionRich,2021.2.3,59.92272365487598,
106.0,106.75,39,0.75,Stimuli/P016/things_window_08s.jpg,0,0,0.0,0,174,174,174,,,,,,,,,,,,,106.00871729999926,0.00871729999926174,None,,132.99215270000423,132.99215270000423,132.99215270000423,132.99215270000423,132.99215270000423,132.99215270000423,132.99215270000423,132.99215270000423,132.99215270000423,132.99215270000423,003,P022,2025_May_13_1713,ConditionRich,2021.2.3,59.92272365487598,
106.75,107.0,41,0.0,Stimuli/Blank.png,0,0,0.0,0,175,175,175,,,,,,,,,,,,,106.75923519999924,0.00923519999923883,None,,133.7428172,133.7428172,133.7428172,133.7428172,133.7428172,133.7428172,133.7428172,133.7428172,133.7428172,133.7428172,003,P022,2025_May_13_1713,ConditionRich,2021.2.3,59.92272365487598,
107.0,107.75,39,0.75,Stimuli/P016/things_window_08s.jpg,1,0,0.75,0,176,176,176,,,,,,,,,,,,,107.0091048999966,0.00910489999660058,1,0.4915404999992461,133.99303350000264,133.99303350000264,133.99303350000264,133.99303350000264,133.99303350000264,133.99303350000264,133.99303350000264,134.72701619999862,133.99303350000264,133.99303350000264,003,P022,2025_May_13_1713,ConditionRich,2021.2.3,59.92272365487598,
107.75,108.0,41,0.0,Stimuli/Blank.png,0,0,0.0,0,177,177,177,,,,,,,,,,,,,107.76060809999763,0.010608099997625686,None,,134.74371170000086,134.74371170000086,134.74371170000086,134.74371170000086,134.74371170000086,134.74371170000086,134.74371170000086,134.74371170000086,134.74371170000086,134.74371170000086,003,P022,2025_May_13_1713,ConditionRich,2021.2.3,59.92272365487598,
108.0,108.75,30,0.75,Stimuli/P016/things_ottoman_08s.jpg,0,0,0.0,0,178,178,178,,,,,,,,,,,,,108.01073589999578,0.010735899995779619,None,,134.9939336000025,134.9939336000025,134.9939336000025,134.9939336000025,134.9939336000025,134.9939336000025,134.9939336000025,134.9939336000025,134.9939336000025,134.9939336000025,003,P022,2025_May_13_1713,ConditionRich,2021.2.3,59.92272365487598,
108.75,109.0,41,0.0,Stimuli/Blank.png,0,0,0.0,0,179,179,179,,,,,,,,,,,,,108.76357439999992,0.013574399999924935,None,,135.76127780000388,135.76127780000388,135.76127780000388,135.76127780000388,135.76127780000388,135.76127780000388,135.76127780000388,135.76127780000388,135.76127780000388,135.76127780000388,003,P022,2025_May_13_1713,ConditionRich,2021.2.3,59.92272365487598,
109.0,109.75,30,0.75,Stimuli/P016/things_ottoman_08s.jpg,0,0,0.0,0,180,180,180,,,,,,,,,,,,,109.0291092999978,0.0291092999977991,None,,136.02817109999887,136.02817109999887,136.02817109999887,136.02817109999887,136.02817109999887,136.02817109999887,136.02817109999887,136.02817109999887,136.02817109999887,136.02817109999887,003,P022,2025_May_13_1713,ConditionRich,2021.2.3,59.92272365487598,
109.75,110.0,41,0.0,Stimuli/Blank.png,0,0,0.0,0,181,181,181,,,,,,,,,,,,,109.77912590000051,0.02912590000050841,None,,136.76215760000196,136.76215760000196,136.76215760000196,136.76215760000196,136.76215760000196,136.76215760000196,136.76215760000196,136.76215760000196,136.76215760000196,136.76215760000196,003,P022,2025_May_13_1713,ConditionRich,2021.2.3,59.92272365487598,
110.0,110.75,30,0.75,Stimuli/P016/things_ottoman_08s.jpg,0,0,0.0,0,182,182,182,,,,,,,,,,,,,110.01393449999887,0.013934499998867977,None,,137.0123839000007,137.0123839000007,137.0123839000007,137.0123839000007,137.0123839000007,137.0123839000007,137.0123839000007,137.0123839000007,137.0123839000007,137.0123839000007,003,P022,2025_May_13_1713,ConditionRich,2021.2.3,59.92272365487598,
110.75,111.0,41,0.0,Stimuli/Blank.png,0,0,0.0,0,183,183,183,,,,,,,,,,,,,110.77953819999675,0.029538199996750336,None,,137.76305230000435,137.76305230000435,137.76305230000435,137.76305230000435,137.76305230000435,137.76305230000435,137.76305230000435,137.76305230000435,137.76305230000435,137.76305230000435,003,P022,2025_May_13_1713,ConditionRich,2021.2.3,59.92272365487598,
111.0,111.75,30,0.75,Stimuli/P016/things_ottoman_08s.jpg,0,0,0.0,0,184,184,184,,,,,,,,,,,,,111.01302600000054,0.013026000000536442,None,,137.9965930000035,137.9965930000035,137.9965930000035,137.9965930000035,137.9965930000035,137.9965930000035,137.9965930000035,137.9965930000035,137.9965930000035,137.9965930000035,003,P022,2025_May_13_1713,ConditionRich,2021.2.3,59.92272365487598,
111.75,112.0,41,0.0,Stimuli/Blank.png,0,0,0.0,0,185,185,185,,,,,,,,,,,,,111.76390239999455,0.013902399994549341,None,,138.74725410000246,138.74725410000246,138.74725410000246,138.74725410000246,138.74725410000246,138.74725410000246,138.74725410000246,138.74725410000246,138.74725410000246,138.74725410000246,003,P022,2025_May_13_1713,ConditionRich,2021.2.3,59.92272365487598,
112.0,112.75,40,0.75,Stimuli/P016/things_woman_08s.jpg,0,0,0.0,0,186,186,186,,,,,,,,,,,,,112.01369519999571,0.013695199995709118,None,,138.9974960000036,138.9974960000036,138.9974960000036,138.9974960000036,138.9974960000036,138.9974960000036,138.9974960000036,138.9974960000036,138.9974960000036,138.9974960000036,003,P022,2025_May_13_1713,ConditionRich,2021.2.3,59.92272365487598,
112.75,113.0,41,0.0,Stimuli/Blank.png,0,0,0.0,0,187,187,187,,,,,,,,,,,,,112.76418980000017,0.014189800000167452,None,,139.74813240000367,139.74813240000367,139.74813240000367,139.74813240000367,139.74813240000367,139.74813240000367,139.74813240000367,139.74813240000367,139.74813240000367,139.74813240000367,003,P022,2025_May_13_1713,ConditionRich,2021.2.3,59.92272365487598,
113.0,113.75,40,0.75,Stimuli/P016/things_woman_08s.jpg,0,0,0.0,0,188,188,188,,,,,,,,,,,,,113.01472959999955,0.014729599999554921,None,,139.99836170000344,139.99836170000344,139.99836170000344,139.99836170000344,139.99836170000344,139.99836170000344,139.99836170000344,139.99836170000344,139.99836170000344,139.99836170000344,003,P022,2025_May_13_1713,ConditionRich,2021.2.3,59.92272365487598,
113.75,114.0,41,0.0,Stimuli/Blank.png,0,0,0.0,0,189,189,189,,,,,,,,,,,,,113.76584459999867,0.015844599998672493,None,,140.74902329999895,140.74902329999895,140.74902329999895,140.74902329999895,140.74902329999895,140.74902329999895,140.74902329999895,140.74902329999895,140.74902329999895,140.74902329999895,003,P022,2025_May_13_1713,ConditionRich,2021.2.3,59.92272365487598,
114.0,114.75,40,0.75,Stimuli/P016/things_woman_08s.jpg,0,0,0.0,0,190,190,190,,,,,,,,,,,,,113.99993330000143,-6.669999856967479e-05,None,,140.99924199999805,140.99924199999805,140.99924199999805,140.99924199999805,140.99924199999805,140.99924199999805,140.99924199999805,140.99924199999805,140.99924199999805,140.99924199999805,003,P022,2025_May_13_1713,ConditionRich,2021.2.3,59.92272365487598,
114.75,115.0,41,0.0,Stimuli/Blank.png,0,0,0.0,0,191,191,191,,,,,,,,,,,,,114.76856839999527,0.018568399995274376,None,,141.76658260000113,141.76658260000113,141.76658260000113,141.76658260000113,141.76658260000113,141.76658260000113,141.76658260000113,141.76658260000113,141.76658260000113,141.76658260000113,003,P022,2025_May_13_1713,ConditionRich,2021.2.3,59.92272365487598,
115.0,115.75,40,0.75,Stimuli/P016/things_woman_08s.jpg,0,0,0.0,0,192,192,192,,,,,,,,,,,,,115.01777790000051,0.01777790000051027,None,,142.01680990000023,142.01680990000023,142.01680990000023,142.01680990000023,142.01680990000023,142.01680990000023,142.01680990000023,142.01680990000023,142.01680990000023,142.01680990000023,003,P022,2025_May_13_1713,ConditionRich,2021.2.3,59.92272365487598,
115.75,116.0,41,0.0,Stimuli/Blank.png,0,0,0.0,0,193,193,193,,,,,,,,,,,,,115.76710939999612,0.017109399996115826,None,,142.75079669999832,142.75079669999832,142.75079669999832,142.75079669999832,142.75079669999832,142.75079669999832,142.75079669999832,142.75079669999832,142.75079669999832,142.75079669999832,003,P022,2025_May_13_1713,ConditionRich,2021.2.3,59.92272365487598,
116.0,116.75,38,0.75,Stimuli/P016/things_trumpet_08s.jpg,0,0,0.0,0,194,194,194,,,,,,,,,,,,,116.00112489999447,0.0011248999944655225,None,,142.98429380000016,142.98429380000016,142.98429380000016,142.98429380000016,142.98429380000016,142.98429380000016,142.98429380000016,142.98429380000016,142.98429380000016,142.98429380000016,003,P022,2025_May_13_1713,ConditionRich,2021.2.3,59.92272365487598,
116.75,117.0,41,0.0,Stimuli/Blank.png,0,0,0.0,0,195,195,195,,,,,,,,,,,,,116.75175909999962,0.0017590999996173196,None,,143.73501190000388,143.73501190000388,143.73501190000388,143.73501190000388,143.73501190000388,143.73501190000388,143.73501190000388,143.73501190000388,143.73501190000388,143.73501190000388,003,P022,2025_May_13_1713,ConditionRich,2021.2.3,59.92272365487598,
117.0,117.75,38,0.75,Stimuli/P016/things_trumpet_08s.jpg,0,0,0.0,0,196,196,196,,,,,,,,,,,,,117.00348949999898,0.003489499998977408,None,,144.00188499999786,144.00188499999786,144.00188499999786,144.00188499999786,144.00188499999786,144.00188499999786,144.00188499999786,144.00188499999786,144.00188499999786,144.00188499999786,003,P022,2025_May_13_1713,ConditionRich,2021.2.3,59.92272365487598,
117.75,118.0,41,0.0,Stimuli/Blank.png,0,0,0.0,0,197,197,197,,,,,,,,,,,,,117.76934069999697,0.019340699996973854,None,,144.7529530000029,144.7529530000029,144.7529530000029,144.7529530000029,144.7529530000029,144.7529530000029,144.7529530000029,144.7529530000029,144.7529530000029,144.7529530000029,003,P022,2025_May_13_1713,ConditionRich,2021.2.3,59.92272365487598,
118.0,118.75,38,0.75,Stimuli/P016/things_trumpet_08s.jpg,0,0,0.0,0,198,198,198,,,,,,,,,,,,,118.00242259999504,0.0024225999950431287,None,,144.9861946000019,144.9861946000019,144.9861946000019,144.9861946000019,144.9861946000019,144.9861946000019,144.9861946000019,144.9861946000019,144.9861946000019,144.9861946000019,003,P022,2025_May_13_1713,ConditionRich,2021.2.3,59.92272365487598,
118.75,119.0,41,0.0,Stimuli/Blank.png,0,0,0.0,0,199,199,199,,,,,,,,,,,,,118.75408939999761,0.004089399997610599,None,,145.73675650000223,145.73675650000223,145.73675650000223,145.73675650000223,145.73675650000223,145.73675650000223,145.73675650000223,145.73675650000223,145.73675650000223,145.73675650000223,003,P022,2025_May_13_1713,ConditionRich,2021.2.3,59.92272365487598,
119.0,119.75,38,0.75,Stimuli/P016/things_trumpet_08s.jpg,0,0,0.0,0,200,200,200,,,,,,,,,,,,,119.00469639999937,0.004696399999374989,None,,146.0036375999989,146.0036375999989,146.0036375999989,146.0036375999989,146.0036375999989,146.0036375999989,146.0036375999989,146.0036375999989,146.0036375999989,146.0036375999989,003,P022,2025_May_13_1713,ConditionRich,2021.2.3,59.92272365487598,
119.75,120.0,41,0.0,Stimuli/Blank.png,0,0,0.0,0,201,201,201,,,,,,,,,,,,,119.77034509999794,0.020345099997939542,None,,146.75433540000085,146.75433540000085,146.75433540000085,146.75433540000085,146.75433540000085,146.75433540000085,146.75433540000085,146.75433540000085,146.75433540000085,146.75433540000085,003,P022,2025_May_13_1713,ConditionRich,2021.2.3,59.92272365487598,
120.0,120.75,6,0.75,Stimuli/P016/sun_akecfasimgpbqcnt.jpg,0,0,0.0,0,202,202,202,,,,,,,,,,,,,120.00485489999846,0.004854899998463225,None,,146.98787570000422,146.98787570000422,146.98787570000422,146.98787570000422,146.98787570000422,146.98787570000422,146.98787570000422,146.98787570000422,146.98787570000422,146.98787570000422,003,P022,2025_May_13_1713,ConditionRich,2021.2.3,59.92272365487598,
120.75,121.0,41,0.0,Stimuli/Blank.png,0,0,0.0,0,203,203,203,,,,,,,,,,,,,120.75568489999569,0.005684899995685555,None,,147.73852569999872,147.73852569999872,147.73852569999872,147.73852569999872,147.73852569999872,147.73852569999872,147.73852569999872,147.73852569999872,147.73852569999872,147.73852569999872,003,P022,2025_May_13_1713,ConditionRich,2021.2.3,59.92272365487598,
121.0,121.75,6,0.75,Stimuli/P016/sun_akecfasimgpbqcnt.jpg,0,0,0.0,0,204,204,204,,,,,,,,,,,,,121.00479279999854,0.004792799998540431,None,,147.98874430000433,147.98874430000433,147.98874430000433,147.98874430000433,147.98874430000433,147.98874430000433,147.98874430000433,147.98874430000433,147.98874430000433,147.98874430000433,003,P022,2025_May_13_1713,ConditionRich,2021.2.3,59.92272365487598,
121.75,122.0,41,0.0,Stimuli/Blank.png,0,0,0.0,0,205,205,205,,,,,,,,,,,,,121.75544860000082,0.00544860000081826,None,,148.7394168000028,148.7394168000028,148.7394168000028,148.7394168000028,148.7394168000028,148.7394168000028,148.7394168000028,148.7394168000028,148.7394168000028,148.7394168000028,003,P022,2025_May_13_1713,ConditionRich,2021.2.3,59.92272365487598,
122.0,122.75,6,0.75,Stimuli/P016/sun_akecfasimgpbqcnt.jpg,0,0,0.0,0,206,206,206,,,,,,,,,,,,,122.00571349999518,0.005713499995181337,None,,149.0063519000032,149.0063519000032,149.0063519000032,149.0063519000032,149.0063519000032,149.0063519000032,149.0063519000032,149.0063519000032,149.0063519000032,149.0063519000032,003,P022,2025_May_13_1713,ConditionRich,2021.2.3,59.92272365487598,
122.75,123.0,41,0.0,Stimuli/Blank.png,0,0,0.0,0,207,207,207,,,,,,,,,,,,,122.77439819999563,0.02439819999563042,None,,149.75698759999796,149.75698759999796,149.75698759999796,149.75698759999796,149.75698759999796,149.75698759999796,149.75698759999796,149.75698759999796,149.75698759999796,149.75698759999796,003,P022,2025_May_13_1713,ConditionRich,2021.2.3,59.92272365487598,
123.0,123.75,6,0.75,Stimuli/P016/sun_akecfasimgpbqcnt.jpg,0,0,0.0,0,208,208,208,,,,,,,,,,,,,123.00864770000044,0.008647700000437908,None,,150.00720230000297,150.00720230000297,150.00720230000297,150.00720230000297,150.00720230000297,150.00720230000297,150.00720230000297,150.00720230000297,150.00720230000297,150.00720230000297,003,P022,2025_May_13_1713,ConditionRich,2021.2.3,59.92272365487598,
123.75,124.0,41,0.0,Stimuli/Blank.png,0,0,0.0,0,209,209,209,,,,,,,,,,,,,123.77437579999969,0.024375799999688752,None,,150.75786230000085,150.75786230000085,150.75786230000085,150.75786230000085,150.75786230000085,150.75786230000085,150.75786230000085,150.75786230000085,150.75786230000085,150.75786230000085,003,P022,2025_May_13_1713,ConditionRich,2021.2.3,59.92272365487598,
124.0,124.75,8,0.75,Stimuli/P016/sun_arldxotvfucvuudk.jpg,0,0,0.0,0,210,210,210,,,,,,,,,,,,,124.00765699999465,0.0076569999946514145,None,,150.99137599999813,150.99137599999813,150.99137599999813,150.99137599999813,150.99137599999813,150.99137599999813,150.99137599999813,150.99137599999813,150.99137599999813,150.99137599999813,003,P022,2025_May_13_1713,ConditionRich,2021.2.3,59.92272365487598,
124.75,125.0,41,0.0,Stimuli/Blank.png,0,0,0.0,0,211,211,211,,,,,,,,,,,,,124.75912139999855,0.00912139999854844,None,,151.74207220000244,151.74207220000244,151.74207220000244,151.74207220000244,151.74207220000244,151.74207220000244,151.74207220000244,151.74207220000244,151.74207220000244,151.74207220000244,003,P022,2025_May_13_1713,ConditionRich,2021.2.3,59.92272365487598,
125.0,125.75,8,0.75,Stimuli/P016/sun_arldxotvfucvuudk.jpg,0,0,0.0,0,212,212,212,,,,,,,,,,,,,125.00926590000017,0.009265900000173133,None,,152.00896590000048,152.00896590000048,152.00896590000048,152.00896590000048,152.00896590000048,152.00896590000048,152.00896590000048,152.00896590000048,152.00896590000048,152.00896590000048,003,P022,2025_May_13_1713,ConditionRich,2021.2.3,59.92272365487598,
125.75,126.0,41,0.0,Stimuli/Blank.png,0,0,0.0,0,213,213,213,,,,,,,,,,,,,125.77841099999932,0.028410999999323394,None,,152.7763580000028,152.7763580000028,152.7763580000028,152.7763580000028,152.7763580000028,152.7763580000028,152.7763580000028,152.7763580000028,152.7763580000028,152.7763580000028,003,P022,2025_May_13_1713,ConditionRich,2021.2.3,59.92272365487598,
126.0,126.75,8,0.75,Stimuli/P016/sun_arldxotvfucvuudk.jpg,0,0,0.0,0,214,214,214,,,,,,,,,,,,,126.0271322999979,0.02713229999790201,None,,153.02653650000138,153.02653650000138,153.02653650000138,153.02653650000138,153.02653650000138,153.02653650000138,153.02653650000138,153.02653650000138,153.02653650000138,153.02653650000138,003,P022,2025_May_13_1713,ConditionRich,2021.2.3,59.92272365487598,
126.75,127.0,41,0.0,Stimuli/Blank.png,0,0,0.0,0,215,215,215,,,,,,,,,,,,,126.77944879999995,0.029448799999954645,None,,153.77722519999952,153.77722519999952,153.77722519999952,153.77722519999952,153.77722519999952,153.77722519999952,153.77722519999952,153.77722519999952,153.77722519999952,153.77722519999952,003,P022,2025_May_13_1713,ConditionRich,2021.2.3,59.92272365487598,
127.0,127.75,8,0.75,Stimuli/P016/sun_arldxotvfucvuudk.jpg,0,0,0.0,0,216,216,216,,,,,,,,,,,,,127.02895290000015,0.028952900000149384,None,,154.0274234000026,154.0274234000026,154.0274234000026,154.0274234000026,154.0274234000026,154.0274234000026,154.0274234000026,154.0274234000026,154.0274234000026,154.0274234000026,003,P022,2025_May_13_1713,ConditionRich,2021.2.3,59.92272365487598,
127.75,128.0,41,0.0,Stimuli/Blank.png,0,0,0.0,0,217,217,217,,,,,,,,,,,,,127.77784979999706,0.027849799997056834,None,,154.76141009999992,154.76141009999992,154.76141009999992,154.76141009999992,154.76141009999992,154.76141009999992,154.76141009999992,154.76141009999992,154.76141009999992,154.76141009999992,003,P022,2025_May_13_1713,ConditionRich,2021.2.3,59.92272365487598,
128.0,128.75,35,0.75,Stimuli/P016/things_squid_08s.jpg,0,0,0.0,0,218,218,218,,,,,,,,,,,,,128.01209269999526,0.012092699995264411,None,,154.995001700001,154.995001700001,154.995001700001,154.995001700001,154.995001700001,154.995001700001,154.995001700001,154.995001700001,154.995001700001,154.995001700001,003,P022,2025_May_13_1713,ConditionRich,2021.2.3,59.92272365487598,
128.75,129.0,41,0.0,Stimuli/Blank.png,0,0,0.0,0,219,219,219,,,,,,,,,,,,,128.76268569999957,0.012685699999565259,None,,155.74561330000142,155.74561330000142,155.74561330000142,155.74561330000142,155.74561330000142,155.74561330000142,155.74561330000142,155.74561330000142,155.74561330000142,155.74561330000142,003,P022,2025_May_13_1713,ConditionRich,2021.2.3,59.92272365487598,
129.0,129.75,35,0.75,Stimuli/P016/things_squid_08s.jpg,0,0,0.0,0,220,220,220,,,,,,,,,,,,,129.0128956999979,0.012895699997898191,None,,155.99583729999722,155.99583729999722,155.99583729999722,155.99583729999722,155.99583729999722,155.99583729999722,155.99583729999722,155.99583729999722,155.99583729999722,155.99583729999722,003,P022,2025_May_13_1713,ConditionRich,2021.2.3,59.92272365487598,
129.75,130.0,41,0.0,Stimuli/Blank.png,0,0,0.0,0,221,221,221,,,,,,,,,,,,,129.76385019999725,0.013850199997250456,None,,156.76318750000064,156.76318750000064,156.76318750000064,156.76318750000064,156.76318750000064,156.76318750000064,156.76318750000064,156.76318750000064,156.76318750000064,156.76318750000064,003,P022,2025_May_13_1713,ConditionRich,2021.2.3,59.92272365487598,
130.0,130.75,35,0.75,Stimuli/P016/things_squid_08s.jpg,0,0,0.0,0,222,222,222,,,,,,,,,,,,,130.03039770000032,0.030397700000321493,None,,157.0133885000032,157.0133885000032,157.0133885000032,157.0133885000032,157.0133885000032,157.0133885000032,157.0133885000032,157.0133885000032,157.0133885000032,157.0133885000032,003,P022,2025_May_13_1713,ConditionRich,2021.2.3,59.92272365487598,
130.75,131.0,41,0.0,Stimuli/Blank.png,0,0,0.0,0,223,223,223,,,,,,,,,,,,,130.76417679999577,0.014176799995766487,None,,157.74737710000045,157.74737710000045,157.74737710000045,157.74737710000045,157.74737710000045,157.74737710000045,157.74737710000045,157.74737710000045,157.74737710000045,157.74737710000045,003,P022,2025_May_13_1713,ConditionRich,2021.2.3,59.92272365487598,
131.0,131.75,35,0.75,Stimuli/P016/things_squid_08s.jpg,0,0,0.0,0,224,224,224,,,,,,,,,,,,,131.01379959999758,0.013799599997582845,None,,157.99759780000022,157.99759780000022,157.99759780000022,157.99759780000022,157.99759780000022,157.99759780000022,157.99759780000022,157.99759780000022,157.99759780000022,157.99759780000022,003,P022,2025_May_13_1713,ConditionRich,2021.2.3,59.92272365487598,
131.75,132.0,41,0.0,Stimuli/Blank.png,0,0,0.0,0,225,225,225,,,,,,,,,,,,,131.76450779999868,0.014507799998682458,None,,158.74824420000368,158.74824420000368,158.74824420000368,158.74824420000368,158.74824420000368,158.74824420000368,158.74824420000368,158.74824420000368,158.74824420000368,158.74824420000368,003,P022,2025_May_13_1713,ConditionRich,2021.2.3,59.92272365487598,
132.0,132.75,34,0.75,Stimuli/P016/things_shower_cap_08s.jpg,0,0,0.0,0,226,226,226,,,,,,,,,,,,,132.01453870000114,0.01453870000113966,None,,158.99847890000092,158.99847890000092,158.99847890000092,158.99847890000092,158.99847890000092,158.99847890000092,158.99847890000092,158.99847890000092,158.99847890000092,158.99847890000092,003,P022,2025_May_13_1713,ConditionRich,2021.2.3,59.92272365487598,
132.75,133.0,41,0.0,Stimuli/Blank.png,0,0,0.0,0,227,227,227,,,,,,,,,,,,,132.76582939999935,0.015829399999347515,None,,159.74916020000092,159.74916020000092,159.74916020000092,159.74916020000092,159.74916020000092,159.74916020000092,159.74916020000092,159.74916020000092,159.74916020000092,159.74916020000092,003,P022,2025_May_13_1713,ConditionRich,2021.2.3,59.92272365487598,
133.0,133.75,34,0.75,Stimuli/P016/things_shower_cap_08s.jpg,1,0,0.75,0,228,228,228,,,,,,,,,,,,,132.99919560000126,-0.0008043999987421557,1,0.4445886999965296,159.9826815999986,159.9826815999986,159.9826815999986,159.9826815999986,159.9826815999986,159.9826815999986,159.9826815999986,160.7166717,159.9826815999986,159.9826815999986,003,P022,2025_May_13_1713,ConditionRich,2021.2.3,59.92272365487598,
133.75,134.0,41,0.0,Stimuli/Blank.png,0,0,0.0,0,229,229,229,,,,,,,,,,,,,133.74955429999682,-0.0004457000031834468,None,,160.73336009999912,160.73336009999912,160.73336009999912,160.73336009999912,160.73336009999912,160.73336009999912,160.73336009999912,160.73336009999912,160.73336009999912,160.73336009999912,003,P022,2025_May_13_1713,ConditionRich,2021.2.3,59.92272365487598,
134.0,134.75,34,0.75,Stimuli/P016/things_shower_cap_08s.jpg,0,0,0.0,0,230,230,230,,,,,,,,,,,,,134.00039079999988,0.0003907999998773448,None,,160.9835774000021,160.9835774000021,160.9835774000021,160.9835774000021,160.9835774000021,160.9835774000021,160.9835774000021,160.9835774000021,160.9835774000021,160.9835774000021,003,P022,2025_May_13_1713,ConditionRich,2021.2.3,59.92272365487598,
134.75,135.0,41,0.0,Stimuli/Blank.png,0,0,0.0,0,231,231,231,,,,,,,,,,,,,134.75088310000137,0.0008831000013742596,None,,161.73424350000278,161.73424350000278,161.73424350000278,161.73424350000278,161.73424350000278,161.73424350000278,161.73424350000278,161.73424350000278,161.73424350000278,161.73424350000278,003,P022,2025_May_13_1713,ConditionRich,2021.2.3,59.92272365487598,
135.0,135.75,34,0.75,Stimuli/P016/things_shower_cap_08s.jpg,0,0,0.0,0,232,232,232,,,,,,,,,,,,,135.00049569999828,0.0004956999982823618,None,,161.98447619999934,161.98447619999934,161.98447619999934,161.98447619999934,161.98447619999934,161.98447619999934,161.98447619999934,161.98447619999934,161.98447619999934,161.98447619999934,003,P022,2025_May_13_1713,ConditionRich,2021.2.3,59.92272365487598,
135.75,136.0,41,0.0,Stimuli/Blank.png,0,0,0.0,0,233,233,233,,,,,,,,,,,,,135.753358199996,0.0033581999960006215,None,,162.7518399000037,162.7518399000037,162.7518399000037,162.7518399000037,162.7518399000037,162.7518399000037,162.7518399000037,162.7518399000037,162.7518399000037,162.7518399000037,003,P022,2025_May_13_1713,ConditionRich,2021.2.3,59.92272365487598,
136.0,136.75,33,0.75,Stimuli/P016/things_raccoon_08n.jpg,0,0,0.0,0,234,234,234,,,,,,,,,,,,,136.0183543999956,0.0183543999955873,None,,163.00223350000306,163.00223350000306,163.00223350000306,163.00223350000306,163.00223350000306,163.00223350000306,163.00223350000306,163.00223350000306,163.00223350000306,163.00223350000306,003,P022,2025_May_13_1713,ConditionRich,2021.2.3,59.92272365487598,
136.75,137.0,41,0.0,Stimuli/Blank.png,0,0,0.0,0,235,235,235,,,,,,,,,,,,,136.75283910000144,0.002839100001438055,None,,163.73601659999986,163.73601659999986,163.73601659999986,163.73601659999986,163.73601659999986,163.73601659999986,163.73601659999986,163.73601659999986,163.73601659999986,163.73601659999986,003,P022,2025_May_13_1713,ConditionRich,2021.2.3,59.92272365487598,
137.0,137.75,33,0.75,Stimuli/P016/things_raccoon_08n.jpg,1,0,0.75,0,236,236,236,,,,,,,,,,,,,137.00495629999932,0.004956299999321345,1,0.3906919000000926,164.00290929999755,164.00290929999755,164.00290929999755,164.00290929999755,164.00290929999755,164.00290929999755,164.00290929999755,164.73688699999911,164.00290929999755,164.00290929999755,003,P022,2025_May_13_1713,ConditionRich,2021.2.3,59.92272365487598,
137.75,138.0,41,0.0,Stimuli/Blank.png,0,0,0.0,0,237,237,237,,,,,,,,,,,,,137.7698797999983,0.019879799998307135,None,,164.75356499999907,164.75356499999907,164.75356499999907,164.75356499999907,164.75356499999907,164.75356499999907,164.75356499999907,164.75356499999907,164.75356499999907,164.75356499999907,003,P022,2025_May_13_1713,ConditionRich,2021.2.3,59.92272365487598,
138.0,138.75,33,0.75,Stimuli/P016/things_raccoon_08n.jpg,0,0,0.0,0,238,238,238,,,,,,,,,,,,,138.00387529999716,0.003875299997162074,None,,165.00381259999995,165.00381259999995,165.00381259999995,165.00381259999995,165.00381259999995,165.00381259999995,165.00381259999995,165.00381259999995,165.00381259999995,165.00381259999995,003,P022,2025_May_13_1713,ConditionRich,2021.2.3,59.92272365487598,
138.75,139.0,41,0.0,Stimuli/Blank.png,0,0,0.0,0,239,239,239,,,,,,,,,,,,,138.773864099996,0.023864099995989818,None,,165.77114060000167,165.77114060000167,165.77114060000167,165.77114060000167,165.77114060000167,165.77114060000167,165.77114060000167,165.77114060000167,165.77114060000167,165.77114060000167,003,P022,2025_May_13_1713,ConditionRich,2021.2.3,59.92272365487598,
139.0,139.75,33,0.75,Stimuli/P016/things_raccoon_08n.jpg,0,0,0.0,0,240,240,240,,,,,,,,,,,,,139.02399929999956,0.023999299999559298,None,,166.02136330000212,166.02136330000212,166.02136330000212,166.02136330000212,166.02136330000212,166.02136330000212,166.02136330000212,166.02136330000212,166.02136330000212,166.02136330000212,003,P022,2025_May_13_1713,ConditionRich,2021.2.3,59.92272365487598,
139.75,140.0,41,0.0,Stimuli/Blank.png,0,0,0.0,0,241,241,241,,,,,,,,,,,,,139.7735845999996,0.023584599999594502,None,,166.77202630000102,166.77202630000102,166.77202630000102,166.77202630000102,166.77202630000102,166.77202630000102,166.77202630000102,166.77202630000102,166.77202630000102,166.77202630000102,003,P022,2025_May_13_1713,ConditionRich,2021.2.3,59.92272365487598,
140.0,140.75,21,0.75,Stimuli/P016/things_arch_08s.jpg,0,0,0.0,0,242,242,242,,,,,,,,,,,,,140.02476670000033,0.024766700000327546,None,,167.02225349999935,167.02225349999935,167.02225349999935,167.02225349999935,167.02225349999935,167.02225349999935,167.02225349999935,167.02225349999935,167.02225349999935,167.02225349999935,003,P022,2025_May_13_1713,ConditionRich,2021.2.3,59.92272365487598,
140.75,141.0,41,0.0,Stimuli/Blank.png,0,0,0.0,0,243,243,243,,,,,,,,,,,,,140.7737391999981,0.023739199998090044,None,,167.75622670000303,167.75622670000303,167.75622670000303,167.75622670000303,167.75622670000303,167.75622670000303,167.75622670000303,167.75622670000303,167.75622670000303,167.75622670000303,003,P022,2025_May_13_1713,ConditionRich,2021.2.3,59.92272365487598,
141.0,141.75,21,0.75,Stimuli/P016/things_arch_08s.jpg,0,0,0.0,0,244,244,244,,,,,,,,,,,,,141.008247699996,0.008247699995990843,None,,168.00645169999916,168.00645169999916,168.00645169999916,168.00645169999916,168.00645169999916,168.00645169999916,168.00645169999916,168.00645169999916,168.00645169999916,168.00645169999916,003,P022,2025_May_13_1713,ConditionRich,2021.2.3,59.92272365487598,
141.75,142.0,41,0.0,Stimuli/Blank.png,0,0,0.0,0,245,245,245,,,,,,,,,,,,,141.77401329999702,0.02401329999702284,None,,168.7571081999995,168.7571081999995,168.7571081999995,168.7571081999995,168.7571081999995,168.7571081999995,168.7571081999995,168.7571081999995,168.7571081999995,168.7571081999995,003,P022,2025_May_13_1713,ConditionRich,2021.2.3,59.92272365487598,
142.0,142.75,21,0.75,Stimuli/P016/things_arch_08s.jpg,0,0,0.0,0,246,246,246,,,,,,,,,,,,,142.00894819999667,0.008948199996666517,None,,169.0073354999986,169.0073354999986,169.0073354999986,169.0073354999986,169.0073354999986,169.0073354999986,169.0073354999986,169.0073354999986,169.0073354999986,169.0073354999986,003,P022,2025_May_13_1713,ConditionRich,2021.2.3,59.92272365487598,
142.75,143.0,41,0.0,Stimuli/Blank.png,0,0,0.0,0,247,247,247,,,,,,,,,,,,,142.77447599999869,0.024475999998685438,None,,169.75799240000197,169.75799240000197,169.75799240000197,169.75799240000197,169.75799240000197,169.75799240000197,169.75799240000197,169.75799240000197,169.75799240000197,169.75799240000197,003,P022,2025_May_13_1713,ConditionRich,2021.2.3,59.92272365487598,
143.0,143.75,21,0.75,Stimuli/P016/things_arch_08s.jpg,0,0,0.0,0,248,248,248,,,,,,,,,,,,,143.00832860000082,0.008328600000822917,None,,170.00822190000326,170.00822190000326,170.00822190000326,170.00822190000326,170.00822190000326,170.00822190000326,170.00822190000326,170.00822190000326,170.00822190000326,170.00822190000326,003,P022,2025_May_13_1713,ConditionRich,2021.2.3,59.92272365487598,
143.75,144.0,41,0.0,Stimuli/Blank.png,0,0,0.0,0,249,249,249,,,,,,,,,,,,,143.77538959999947,0.025389599999471102,None,,170.75888410000334,170.75888410000334,170.75888410000334,170.75888410000334,170.75888410000334,170.75888410000334,170.75888410000334,170.75888410000334,170.75888410000334,170.75888410000334,003,P022,2025_May_13_1713,ConditionRich,2021.2.3,59.92272365487598,
144.0,144.75,20,0.75,Stimuli/P016/sun_bzmxulijbnmshodq.jpg,0,0,0.0,0,250,250,250,,,,,,,,,,,,,144.00864469999942,0.0086446999994223,None,,170.9924295000019,170.9924295000019,170.9924295000019,170.9924295000019,170.9924295000019,170.9924295000019,170.9924295000019,170.9924295000019,170.9924295000019,170.9924295000019,003,P022,2025_May_13_1713,ConditionRich,2021.2.3,59.92272365487598,
144.75,145.0,41,0.0,Stimuli/Blank.png,0,0,0.0,0,251,251,251,,,,,,,,,,,,,144.7595422999948,0.009542299994791392,None,,171.743080799999,171.743080799999,171.743080799999,171.743080799999,171.743080799999,171.743080799999,171.743080799999,171.743080799999,171.743080799999,171.743080799999,003,P022,2025_May_13_1713,ConditionRich,2021.2.3,59.92272365487598,
145.0,145.75,20,0.75,Stimuli/P016/sun_bzmxulijbnmshodq.jpg,0,0,0.0,0,252,252,252,,,,,,,,,,,,,145.0095199999996,0.009519999999611173,None,,171.9933127999975,171.9933127999975,171.9933127999975,171.9933127999975,171.9933127999975,171.9933127999975,171.9933127999975,171.9933127999975,171.9933127999975,171.9933127999975,003,P022,2025_May_13_1713,ConditionRich,2021.2.3,59.92272365487598,
145.75,146.0,41,0.0,Stimuli/Blank.png,0,0,0.0,0,253,253,253,,,,,,,,,,,,,145.7605035000015,0.010503500001505017,None,,172.74400250000326,172.74400250000326,172.74400250000326,172.74400250000326,172.74400250000326,172.74400250000326,172.74400250000326,172.74400250000326,172.74400250000326,172.74400250000326,003,P022,2025_May_13_1713,ConditionRich,2021.2.3,59.92272365487598,
146.0,146.75,20,0.75,Stimuli/P016/sun_bzmxulijbnmshodq.jpg,0,0,0.0,0,254,254,254,,,,,,,,,,,,,146.01082150000002,0.010821500000020023,None,,172.99418200000218,172.99418200000218,172.99418200000218,172.99418200000218,172.99418200000218,172.99418200000218,172.99418200000218,172.99418200000218,172.99418200000218,172.99418200000218,003,P022,2025_May_13_1713,ConditionRich,2021.2.3,59.92272365487598,
146.75,147.0,41,0.0,Stimuli/Blank.png,0,0,0.0,0,255,255,255,,,,,,,,,,,,,146.76166530000046,0.011665300000458956,None,,173.74485999999888,173.74485999999888,173.74485999999888,173.74485999999888,173.74485999999888,173.74485999999888,173.74485999999888,173.74485999999888,173.74485999999888,173.74485999999888,003,P022,2025_May_13_1713,ConditionRich,2021.2.3,59.92272365487598,
147.0,147.75,20,0.75,Stimuli/P016/sun_bzmxulijbnmshodq.jpg,1,0,0.75,0,256,256,256,,,,,,,,,,,,,147.0133285999982,0.013328599998203572,1,0.42285029999766266,174.01176560000022,174.01176560000022,174.01176560000022,174.01176560000022,174.01176560000022,174.01176560000022,174.01176560000022,174.74575500000356,174.01176560000022,174.01176560000022,003,P022,2025_May_13_1713,ConditionRich,2021.2.3,59.92272365487598,
147.75,148.0,41,0.0,Stimuli/Blank.png,0,0,0.0,0,257,257,257,,,,,,,,,,,,,147.77871869999944,0.028718699999444652,None,,174.76239260000148,174.76239260000148,174.76239260000148,174.76239260000148,174.76239260000148,174.76239260000148,174.76239260000148,174.76239260000148,174.76239260000148,174.76239260000148,003,P022,2025_May_13_1713,ConditionRich,2021.2.3,59.92272365487598,
148.0,148.75,26,0.75,Stimuli/P016/things_face_08s.jpg,0,0,0.0,0,258,258,258,,,,,,,,,,,,,148.01476879999973,0.014768799999728799,None,,175.01264739999897,175.01264739999897,175.01264739999897,175.01264739999897,175.01264739999897,175.01264739999897,175.01264739999897,175.01264739999897,175.01264739999897,175.01264739999897,003,P022,2025_May_13_1713,ConditionRich,2021.2.3,59.92272365487598,
148.75,149.0,41,0.0,Stimuli/Blank.png,0,0,0.0,0,259,259,259,,,,,,,,,,,,,148.7793873999981,0.02938739999808604,None,,175.7633214000016,175.7633214000016,175.7633214000016,175.7633214000016,175.7633214000016,175.7633214000016,175.7633214000016,175.7633214000016,175.7633214000016,175.7633214000016,003,P022,2025_May_13_1713,ConditionRich,2021.2.3,59.92272365487598,
149.0,149.75,26,0.75,Stimuli/P016/things_face_08s.jpg,0,0,0.0,0,260,260,260,,,,,,,,,,,,,149.01352359999873,0.013523599998734426,None,,175.99683950000326,175.99683950000326,175.99683950000326,175.99683950000326,175.99683950000326,175.99683950000326,175.99683950000326,175.99683950000326,175.99683950000326,175.99683950000326,003,P022,2025_May_13_1713,ConditionRich,2021.2.3,59.92272365487598,
149.75,150.0,41,0.0,Stimuli/Blank.png,0,0,0.0,0,261,261,261,,,,,,,,,,,,,149.76389170000039,0.013891700000385754,None,,176.74751560000004,176.74751560000004,176.74751560000004,176.74751560000004,176.74751560000004,176.74751560000004,176.74751560000004,176.74751560000004,176.74751560000004,176.74751560000004,003,P022,2025_May_13_1713,ConditionRich,2021.2.3,59.92272365487598,
