eventStartTime,eventEndTime,eventCond,imSize,imFile,responseEvent,fixRespStart,fixRespEnd,Events.thisRepN,Events.thisTrialN,Events.thisN,Events.thisIndex,Instructions.started,Instructions.stopped,participantReadyResponse.keys,participantReadyResponse.rt,participantReadyResponse.started,participantReadyResponse.stopped,startWaitforTrigger,triggerResponse.keys,triggerResponse.rt,triggerResponse.started,triggerResponse.stopped,globalTimer,actualStartTime,startTimingDiff,participantResponse.keys,participantResponse.started,participantResponse.stopped,image.started,image.stopped,fixationOutside.started,fixationOutside.stopped,fixationResponse.started,fixationResponse.stopped,fixationInside.started,fixationInside.stopped,participantResponse.rt,session,participant,date,expName,psychopyVersion,frameRate,
,,,,,,,,,,,,15.086201300000539,None,1,3.531254399997124,15.086201300000539,None,,,,,,,,,,,,,,,,,,,,,005,P022,2025_May_13_1733,ConditionRich,2021.2.3,59.94125756688776,
,,,,,,,,,,,,,,,,,,18.634542100000544,5,14.721940299998096,18.647847599997476,None,,,,,,,,,,,,,,,,005,P022,2025_May_13_1733,ConditionRich,2021.2.3,59.94125756688776,
0.0,4.0,0,0.0,Stimuli/Blank.png,0,0,0.0,0,0,0,0,,,,,,,,,,,,33.38196049999533,0.027614899998297915,0.027614899998297915,None,33.42760459999408,None,33.42760459999408,None,33.42760459999408,None,33.42760459999408,33.42760459999408,33.42760459999408,None,,005,P022,2025_May_13_1733,ConditionRich,2021.2.3,59.94125756688776,
4.0,7.75,29,0.75,Stimuli/P016/things_mouse1_08s.jpg,0,0,0.0,0,1,1,1,,,,,,,,,,,,,4.023086799999874,0.02308679999987362,None,37.43136289999529,37.43136289999529,37.43136289999529,37.43136289999529,37.43136289999529,37.43136289999529,37.43136289999529,37.43136289999529,37.43136289999529,37.43136289999529,,005,P022,2025_May_13_1733,ConditionRich,2021.2.3,59.94125756688776,
7.75,8.0,41,0.0,Stimuli/Blank.png,0,0,0.0,0,2,2,2,,,,,,,,,,,,,7.771884900001169,0.021884900001168717,None,41.16803449999861,41.16803449999861,41.16803449999861,41.16803449999861,41.16803449999861,41.16803449999861,41.16803449999861,41.16803449999861,41.16803449999861,41.16803449999861,,005,P022,2025_May_13_1733,ConditionRich,2021.2.3,59.94125756688776,
8.0,11.75,38,0.75,Stimuli/P016/things_trumpet_08s.jpg,0,0,0.0,0,3,3,3,,,,,,,,,,,,,8.0049072000038,0.004907200003799517,None,41.40130800000043,41.40130800000043,41.40130800000043,41.40130800000043,41.40130800000043,41.40130800000043,41.40130800000043,41.40130800000043,41.40130800000043,41.40130800000043,,005,P022,2025_May_13_1733,ConditionRich,2021.2.3,59.94125756688776,
11.75,12.0,41,0.0,Stimuli/Blank.png,0,0,0.0,0,4,4,4,,,,,,,,,,,,,11.760873100000026,0.01087310000002617,None,45.17130499999621,45.17130499999621,45.17130499999621,45.17130499999621,45.17130499999621,45.17130499999621,45.17130499999621,45.17130499999621,45.17130499999621,45.17130499999621,,005,P022,2025_May_13_1733,ConditionRich,2021.2.3,59.94125756688776,
12.0,15.75,4,0.75,Stimuli/P016/sun_aiwuqxdqzftsfyeg.jpg,0,0,0.0,0,5,5,5,,,,,,,,,,,,,12.025046800001292,0.025046800001291558,None,45.421529599996575,45.421529599996575,45.421529599996575,45.421529599996575,45.421529599996575,45.421529599996575,45.421529599996575,45.421529599996575,45.421529599996575,45.421529599996575,,005,P022,2025_May_13_1733,ConditionRich,2021.2.3,59.94125756688776,
15.75,16.0,41,0.0,Stimuli/Blank.png,0,0,0.0,0,6,6,6,,,,,,,,,,,,,15.76169050000317,0.01169050000316929,None,49.15817619999871,49.15817619999871,49.15817619999871,49.15817619999871,49.15817619999871,49.15817619999871,49.15817619999871,49.15817619999871,49.15817619999871,49.15817619999871,,005,P022,2025_May_13_1733,ConditionRich,2021.2.3,59.94125756688776,
16.0,19.75,28,0.75,Stimuli/P016/things_latte_08s.jpg,0,0,0.0,0,7,7,7,,,,,,,,,,,,,16.011798600004113,0.011798600004112814,None,49.40837759999704,49.40837759999704,49.40837759999704,49.40837759999704,49.40837759999704,49.40837759999704,49.40837759999704,49.40837759999704,49.40837759999704,49.40837759999704,,005,P022,2025_May_13_1733,ConditionRich,2021.2.3,59.94125756688776,
19.75,20.0,41,0.0,Stimuli/Blank.png,0,0,0.0,0,8,8,8,,,,,,,,,,,,,19.766435500001535,0.01643550000153482,None,53.16170279999642,53.16170279999642,53.16170279999642,53.16170279999642,53.16170279999642,53.16170279999642,53.16170279999642,53.16170279999642,53.16170279999642,53.16170279999642,,005,P022,2025_May_13_1733,ConditionRich,2021.2.3,59.94125756688776,
20.0,23.75,9,0.75,Stimuli/P016/sun_bbdgftzhpkaklkll.jpg,0,0,0.0,0,9,9,9,,,,,,,,,,,,,19.998734200002218,-0.001265799997781869,None,53.41208370000095,53.41208370000095,53.41208370000095,53.41208370000095,53.41208370000095,53.41208370000095,53.41208370000095,53.41208370000095,53.41208370000095,53.41208370000095,,005,P022,2025_May_13_1733,ConditionRich,2021.2.3,59.94125756688776,
23.75,24.0,41,0.0,Stimuli/Blank.png,0,0,0.0,0,10,10,10,,,,,,,,,,,,,23.77107409999735,0.02107409999734955,None,57.18193030000111,57.18193030000111,57.18193030000111,57.18193030000111,57.18193030000111,57.18193030000111,57.18193030000111,57.18193030000111,57.18193030000111,57.18193030000111,,005,P022,2025_May_13_1733,ConditionRich,2021.2.3,59.94125756688776,
24.0,27.75,17,0.75,Stimuli/P016/sun_bxhbltvqnpaciuzt.jpg,1,3,3.75,0,11,11,11,,,,,,,,,,,,,24.021907599999395,0.021907599999394733,1,57.432140599994455,57.432140599994455,57.432140599994455,57.432140599994455,57.432140599994455,57.432140599994455,60.41812650000065,None,57.432140599994455,57.432140599994455,3.4242745000010473,005,P022,2025_May_13_1733,ConditionRich,2021.2.3,59.94125756688776,
27.75,28.0,41,0.0,Stimuli/Blank.png,0,0,0.0,0,12,12,12,,,,,,,,,,,,,27.772666400000162,0.022666400000161957,None,61.168826099994476,61.168826099994476,61.168826099994476,61.168826099994476,61.168826099994476,61.168826099994476,61.168826099994476,61.168826099994476,61.168826099994476,61.168826099994476,,005,P022,2025_May_13_1733,ConditionRich,2021.2.3,59.94125756688776,
28.0,31.75,25,0.75,Stimuli/P016/things_deer_08s.jpg,0,0,0.0,0,13,13,13,,,,,,,,,,,,,28.005742200002715,0.005742200002714526,None,61.402322999994794,61.402322999994794,61.402322999994794,61.402322999994794,61.402322999994794,61.402322999994794,61.402322999994794,61.402322999994794,61.402322999994794,61.402322999994794,,005,P022,2025_May_13_1733,ConditionRich,2021.2.3,59.94125756688776,
31.75,32.0,41,0.0,Stimuli/Blank.png,0,0,0.0,0,14,14,14,,,,,,,,,,,,,31.762159099998826,0.012159099998825695,None,65.17233199999464,65.17233199999464,65.17233199999464,65.17233199999464,65.17233199999464,65.17233199999464,65.17233199999464,65.17233199999464,65.17233199999464,65.17233199999464,,005,P022,2025_May_13_1733,ConditionRich,2021.2.3,59.94125756688776,
32.0,35.75,34,0.75,Stimuli/P016/things_shower_cap_08s.jpg,1,3,3.75,0,15,15,15,,,,,,,,,,,,,32.025961699997424,0.025961699997424148,1,65.42254649999813,65.42254649999813,65.42254649999813,65.42254649999813,65.42254649999813,65.42254649999813,68.40854789999867,None,65.42254649999813,65.42254649999813,3.547995199995057,005,P022,2025_May_13_1733,ConditionRich,2021.2.3,59.94125756688776,
35.75,36.0,41,0.0,Stimuli/Blank.png,0,0,0.0,0,16,16,16,,,,,,,,,,,,,35.76428300000407,0.014283000004070345,None,69.15918160000001,69.15918160000001,69.15918160000001,69.15918160000001,69.15918160000001,69.15918160000001,69.15918160000001,69.15918160000001,69.15918160000001,69.15918160000001,,005,P022,2025_May_13_1733,ConditionRich,2021.2.3,59.94125756688776,
36.0,39.75,30,0.75,Stimuli/P016/things_ottoman_08s.jpg,0,0,0.0,0,17,17,17,,,,,,,,,,,,,36.01370070000121,0.013700700001209043,None,69.42607739999949,69.42607739999949,69.42607739999949,69.42607739999949,69.42607739999949,69.42607739999949,69.42607739999949,69.42607739999949,69.42607739999949,69.42607739999949,,005,P022,2025_May_13_1733,ConditionRich,2021.2.3,59.94125756688776,
39.75,40.0,41,0.0,Stimuli/Blank.png,0,0,0.0,0,18,18,18,,,,,,,,,,,,,39.76680669999769,0.016806699997687247,None,73.16271779999806,73.16271779999806,73.16271779999806,73.16271779999806,73.16271779999806,73.16271779999806,73.16271779999806,73.16271779999806,73.16271779999806,73.16271779999806,,005,P022,2025_May_13_1733,ConditionRich,2021.2.3,59.94125756688776,
40.0,43.75,23,0.75,Stimuli/P016/things_boy_08s.jpg,0,0,0.0,0,19,19,19,,,,,,,,,,,,,40.000408799998695,0.0004087999986950308,None,73.39626080000016,73.39626080000016,73.39626080000016,73.39626080000016,73.39626080000016,73.39626080000016,73.39626080000016,73.39626080000016,73.39626080000016,73.39626080000016,,005,P022,2025_May_13_1733,ConditionRich,2021.2.3,59.94125756688776,
43.75,44.0,41,0.0,Stimuli/Blank.png,0,0,0.0,0,20,20,20,,,,,,,,,,,,,43.75311789999978,0.0031178999997791834,None,77.14957799999684,77.14957799999684,77.14957799999684,77.14957799999684,77.14957799999684,77.14957799999684,77.14957799999684,77.14957799999684,77.14957799999684,77.14957799999684,,005,P022,2025_May_13_1733,ConditionRich,2021.2.3,59.94125756688776,
44.0,47.75,2,0.75,Stimuli/P016/sun_agzfkftryitnqpxc.jpg,0,0,0.0,0,21,21,21,,,,,,,,,,,,,44.00653220000095,0.006532200000947341,None,77.41647269999521,77.41647269999521,77.41647269999521,77.41647269999521,77.41647269999521,77.41647269999521,77.41647269999521,77.41647269999521,77.41647269999521,77.41647269999521,,005,P022,2025_May_13_1733,ConditionRich,2021.2.3,59.94125756688776,
47.75,48.0,41,0.0,Stimuli/Blank.png,0,0,0.0,0,22,22,22,,,,,,,,,,,,,47.77314379999734,0.023143799997342285,None,81.16989309999917,81.16989309999917,81.16989309999917,81.16989309999917,81.16989309999917,81.16989309999917,81.16989309999917,81.16989309999917,81.16989309999917,81.16989309999917,,005,P022,2025_May_13_1733,ConditionRich,2021.2.3,59.94125756688776,
48.0,51.75,22,0.75,Stimuli/P016/things_baby_08s.jpg,0,0,0.0,0,23,23,23,,,,,,,,,,,,,48.007597100004205,0.007597100004204549,None,81.42002659999707,81.42002659999707,81.42002659999707,81.42002659999707,81.42002659999707,81.42002659999707,81.42002659999707,81.42002659999707,81.42002659999707,81.42002659999707,,005,P022,2025_May_13_1733,ConditionRich,2021.2.3,59.94125756688776,
51.75,52.0,41,0.0,Stimuli/Blank.png,0,0,0.0,0,24,24,24,,,,,,,,,,,,,51.777725400002964,0.027725400002964307,None,85.1733477999951,85.1733477999951,85.1733477999951,85.1733477999951,85.1733477999951,85.1733477999951,85.1733477999951,85.1733477999951,85.1733477999951,85.1733477999951,,005,P022,2025_May_13_1733,ConditionRich,2021.2.3,59.94125756688776,
52.0,55.75,24,0.75,Stimuli/P016/things_bunkbed_08s.jpg,1,1,1.75,0,25,25,25,,,,,,,,,,,,,52.01104209999903,0.011042099999031052,4,85.40687210000033,85.40687210000033,85.40687210000033,85.40687210000033,85.40687210000033,85.40687210000033,86.39107929999591,87.14174259999709,85.40687210000033,85.40687210000033,2.519686500003445,005,P022,2025_May_13_1733,ConditionRich,2021.2.3,59.94125756688776,
55.75,56.0,41,0.0,Stimuli/Blank.png,0,0,0.0,0,26,26,26,,,,,,,,,,,,,55.76391890000377,0.01391890000377316,None,89.16033009999956,89.16033009999956,89.16033009999956,89.16033009999956,89.16033009999956,89.16033009999956,89.16033009999956,89.16033009999956,89.16033009999956,89.16033009999956,,005,P022,2025_May_13_1733,ConditionRich,2021.2.3,59.94125756688776,
56.0,59.75,33,0.75,Stimuli/P016/things_raccoon_08n.jpg,1,0,0.75,0,27,27,27,,,,,,,,,,,,,56.01548030000413,0.015480300004128367,1,89.42710219999572,89.42710219999572,89.42710219999572,89.42710219999572,89.42710219999572,89.42710219999572,89.42710219999572,90.14443699999538,89.42710219999572,89.42710219999572,0.6243890999976429,005,P022,2025_May_13_1733,ConditionRich,2021.2.3,59.94125756688776,
59.75,60.0,41,0.0,Stimuli/Blank.png,0,0,0.0,0,28,28,28,,,,,,,,,,,,,59.76813940000284,0.018139400002837647,None,93.16370359999564,93.16370359999564,93.16370359999564,93.16370359999564,93.16370359999564,93.16370359999564,93.16370359999564,93.16370359999564,93.16370359999564,93.16370359999564,,005,P022,2025_May_13_1733,ConditionRich,2021.2.3,59.94125756688776,
60.0,63.75,16,0.75,Stimuli/P016/sun_bwhuwxazfqwuqhik.jpg,0,0,0.0,0,29,29,29,,,,,,,,,,,,,60.00169040000037,0.0016904000003705733,None,93.39726710000105,93.39726710000105,93.39726710000105,93.39726710000105,93.39726710000105,93.39726710000105,93.39726710000105,93.39726710000105,93.39726710000105,93.39726710000105,,005,P022,2025_May_13_1733,ConditionRich,2021.2.3,59.94125756688776,
63.75,64.0,41,0.0,Stimuli/Blank.png,0,0,0.0,0,30,30,30,,,,,,,,,,,,,63.75714080000034,0.007140800000343006,None,97.16727489999903,97.16727489999903,97.16727489999903,97.16727489999903,97.16727489999903,97.16727489999903,97.16727489999903,97.16727489999903,97.16727489999903,97.16727489999903,,005,P022,2025_May_13_1733,ConditionRich,2021.2.3,59.94125756688776,
64.0,67.75,1,0.75,Stimuli/P016/sun_aacpzgqrortyhyss.jpg,0,0,0.0,0,31,31,31,,,,,,,,,,,,,64.02204999999958,0.022049999999580905,None,97.43422519999876,97.43422519999876,97.43422519999876,97.43422519999876,97.43422519999876,97.43422519999876,97.43422519999876,97.43422519999876,97.43422519999876,97.43422519999876,,005,P022,2025_May_13_1733,ConditionRich,2021.2.3,59.94125756688776,
67.75,68.0,41,0.0,Stimuli/Blank.png,0,0,0.0,0,32,32,32,,,,,,,,,,,,,67.77715529999841,0.027155299998412374,None,101.18749979999848,101.18749979999848,101.18749979999848,101.18749979999848,101.18749979999848,101.18749979999848,101.18749979999848,101.18749979999848,101.18749979999848,101.18749979999848,,005,P022,2025_May_13_1733,ConditionRich,2021.2.3,59.94125756688776,
68.0,71.75,14,0.75,Stimuli/P016/sun_bpvmkbyglkraoxhh.jpg,0,0,0.0,0,33,33,33,,,,,,,,,,,,,68.0246330000009,0.02463300000090385,None,101.42103359999601,101.42103359999601,101.42103359999601,101.42103359999601,101.42103359999601,101.42103359999601,101.42103359999601,101.42103359999601,101.42103359999601,101.42103359999601,,005,P022,2025_May_13_1733,ConditionRich,2021.2.3,59.94125756688776,
71.75,72.0,41,0.0,Stimuli/Blank.png,0,0,0.0,0,34,34,34,,,,,,,,,,,,,71.76182870000048,0.01182870000047842,None,105.15769,105.15769,105.15769,105.15769,105.15769,105.15769,105.15769,105.15769,105.15769,105.15769,,005,P022,2025_May_13_1733,ConditionRich,2021.2.3,59.94125756688776,
72.0,75.75,20,0.75,Stimuli/P016/sun_bzmxulijbnmshodq.jpg,1,0,0.75,0,35,35,35,,,,,,,,,,,,,72.01202960000228,0.01202960000227904,1,105.40789969999605,105.40789969999605,105.40789969999605,105.40789969999605,105.40789969999605,105.40789969999605,105.40789969999605,106.1418749000004,105.40789969999605,105.40789969999605,0.4515991000007489,005,P022,2025_May_13_1733,ConditionRich,2021.2.3,59.94125756688776,
75.75,76.0,41,0.0,Stimuli/Blank.png,0,0,0.0,0,36,36,36,,,,,,,,,,,,,75.76556710000295,0.015567100002954248,None,109.16121439999552,109.16121439999552,109.16121439999552,109.16121439999552,109.16121439999552,109.16121439999552,109.16121439999552,109.16121439999552,109.16121439999552,109.16121439999552,,005,P022,2025_May_13_1733,ConditionRich,2021.2.3,59.94125756688776,
76.0,79.75,21,0.75,Stimuli/P016/things_arch_08s.jpg,0,0,0.0,0,37,37,37,,,,,,,,,,,,,75.99822999999742,-0.0017700000025797635,None,109.41145020000113,109.41145020000113,109.41145020000113,109.41145020000113,109.41145020000113,109.41145020000113,109.41145020000113,109.41145020000113,109.41145020000113,109.41145020000113,,005,P022,2025_May_13_1733,ConditionRich,2021.2.3,59.94125756688776,
79.75,80.0,41,0.0,Stimuli/Blank.png,0,0,0.0,0,38,38,38,,,,,,,,,,,,,79.77097279999725,0.020972799997252878,None,113.18138180000096,113.18138180000096,113.18138180000096,113.18138180000096,113.18138180000096,113.18138180000096,113.18138180000096,113.18138180000096,113.18138180000096,113.18138180000096,,005,P022,2025_May_13_1733,ConditionRich,2021.2.3,59.94125756688776,
80.0,83.75,37,0.75,Stimuli/P016/things_swizzle_stick_08s.jpg,0,0,0.0,0,39,39,39,,,,,,,,,,,,,80.02095089999784,0.020950899997842498,None,113.43169359999592,113.43169359999592,113.43169359999592,113.43169359999592,113.43169359999592,113.43169359999592,113.43169359999592,113.43169359999592,113.43169359999592,113.43169359999592,,005,P022,2025_May_13_1733,ConditionRich,2021.2.3,59.94125756688776,
83.75,84.0,41,0.0,Stimuli/Blank.png,0,0,0.0,0,40,40,40,,,,,,,,,,,,,83.77242269999988,0.022422699999879114,None,117.16829249999864,117.16829249999864,117.16829249999864,117.16829249999864,117.16829249999864,117.16829249999864,117.16829249999864,117.16829249999864,117.16829249999864,117.16829249999864,,005,P022,2025_May_13_1733,ConditionRich,2021.2.3,59.94125756688776,
84.0,100.0,0,0.0,Stimuli/Blank.png,1,13,13.75,0,41,41,41,,,,,,,,,,,,,84.00543319999997,0.005433199999970384,1,117.40184579999914,117.40184579999914,117.40184579999914,117.40184579999914,117.40184579999914,117.40184579999914,130.38000739999552,131.13064199999644,117.40184579999914,117.40184579999914,13.377683300001081,005,P022,2025_May_13_1733,ConditionRich,2021.2.3,59.94125756688776,
100.0,103.75,40,0.75,Stimuli/P016/things_woman_08s.jpg,0,0,0.0,0,42,42,42,,,,,,,,,,,,,100.00295740000001,0.0029574000000138767,None,133.39930620000086,133.39930620000086,133.39930620000086,133.39930620000086,133.39930620000086,133.39930620000086,133.39930620000086,133.39930620000086,133.39930620000086,133.39930620000086,,005,P022,2025_May_13_1733,ConditionRich,2021.2.3,59.94125756688776,
103.75,104.0,41,0.0,Stimuli/Blank.png,0,0,0.0,0,43,43,43,,,,,,,,,,,,,103.75812740000401,0.008127400004013907,None,137.1526440999951,137.1526440999951,137.1526440999951,137.1526440999951,137.1526440999951,137.1526440999951,137.1526440999951,137.1526440999951,137.1526440999951,137.1526440999951,,005,P022,2025_May_13_1733,ConditionRich,2021.2.3,59.94125756688776,
104.0,107.75,36,0.75,Stimuli/P016/things_streetlight_08s.jpg,0,0,0.0,0,44,44,44,,,,,,,,,,,,,104.00626740000007,0.006267400000069756,None,137.40284640000027,137.40284640000027,137.40284640000027,137.40284640000027,137.40284640000027,137.40284640000027,137.40284640000027,137.40284640000027,137.40284640000027,137.40284640000027,,005,P022,2025_May_13_1733,ConditionRich,2021.2.3,59.94125756688776,
107.75,108.0,41,0.0,Stimuli/Blank.png,0,0,0.0,0,45,45,45,,,,,,,,,,,,,107.7602670999986,0.010267099998600315,None,141.1561661999949,141.1561661999949,141.1561661999949,141.1561661999949,141.1561661999949,141.1561661999949,141.1561661999949,141.1561661999949,141.1561661999949,141.1561661999949,,005,P022,2025_May_13_1733,ConditionRich,2021.2.3,59.94125756688776,
108.0,111.75,11,0.75,Stimuli/P016/sun_bnwmcjuinqbdsbho.jpg,0,0,0.0,0,46,46,46,,,,,,,,,,,,,108.00983219999762,0.009832199997617863,None,141.40639299999748,141.40639299999748,141.40639299999748,141.40639299999748,141.40639299999748,141.40639299999748,141.40639299999748,141.40639299999748,141.40639299999748,141.40639299999748,,005,P022,2025_May_13_1733,ConditionRich,2021.2.3,59.94125756688776,
111.75,112.0,41,0.0,Stimuli/Blank.png,0,0,0.0,0,47,47,47,,,,,,,,,,,,,111.76611330000014,0.016113300000142772,None,145.17640379999648,145.17640379999648,145.17640379999648,145.17640379999648,145.17640379999648,145.17640379999648,145.17640379999648,145.17640379999648,145.17640379999648,145.17640379999648,,005,P022,2025_May_13_1733,ConditionRich,2021.2.3,59.94125756688776,
112.0,115.75,15,0.75,Stimuli/P016/sun_bvfcijehgdsndfbg.jpg,0,0,0.0,0,48,48,48,,,,,,,,,,,,,112.01333120000345,0.01333120000344934,None,145.40992449999612,145.40992449999612,145.40992449999612,145.40992449999612,145.40992449999612,145.40992449999612,145.40992449999612,145.40992449999612,145.40992449999612,145.40992449999612,,005,P022,2025_May_13_1733,ConditionRich,2021.2.3,59.94125756688776,
115.75,116.0,41,0.0,Stimuli/Blank.png,0,0,0.0,0,49,49,49,,,,,,,,,,,,,115.75012309999875,0.00012309999874560162,None,149.14656259999902,149.14656259999902,149.14656259999902,149.14656259999902,149.14656259999902,149.14656259999902,149.14656259999902,149.14656259999902,149.14656259999902,149.14656259999902,,005,P022,2025_May_13_1733,ConditionRich,2021.2.3,59.94125756688776,
116.0,119.75,3,0.75,Stimuli/P016/sun_aiogwnavezqxkzfg.jpg,0,0,0.0,0,50,50,50,,,,,,,,,,,,,116.00046799999836,0.00046799999836366624,None,149.39677699999447,149.39677699999447,149.39677699999447,149.39677699999447,149.39677699999447,149.39677699999447,149.39677699999447,149.39677699999447,149.39677699999447,149.39677699999447,,005,P022,2025_May_13_1733,ConditionRich,2021.2.3,59.94125756688776,
119.75,120.0,41,0.0,Stimuli/Blank.png,0,0,0.0,0,51,51,51,,,,,,,,,,,,,119.75362060000043,0.0036206000004312955,None,153.15010299999994,153.15010299999994,153.15010299999994,153.15010299999994,153.15010299999994,153.15010299999994,153.15010299999994,153.15010299999994,153.15010299999994,153.15010299999994,,005,P022,2025_May_13_1733,ConditionRich,2021.2.3,59.94125756688776,
120.0,123.75,18,0.75,Stimuli/P016/sun_byavixgfuhzioilz.jpg,0,0,0.0,0,52,52,52,,,,,,,,,,,,,120.0036351000017,0.003635100001702085,None,153.4170182999951,153.4170182999951,153.4170182999951,153.4170182999951,153.4170182999951,153.4170182999951,153.4170182999951,153.4170182999951,153.4170182999951,153.4170182999951,,005,P022,2025_May_13_1733,ConditionRich,2021.2.3,59.94125756688776,
123.75,124.0,41,0.0,Stimuli/Blank.png,0,0,0.0,0,53,53,53,,,,,,,,,,,,,123.77435569999943,0.024355699999432545,None,157.1703639999978,157.1703639999978,157.1703639999978,157.1703639999978,157.1703639999978,157.1703639999978,157.1703639999978,157.1703639999978,157.1703639999978,157.1703639999978,,005,P022,2025_May_13_1733,ConditionRich,2021.2.3,59.94125756688776,
124.0,127.75,27,0.75,Stimuli/P016/things_girl_08s.jpg,0,0,0.0,0,54,54,54,,,,,,,,,,,,,124.0084083000038,0.008408300003793556,None,157.4205501999968,157.4205501999968,157.4205501999968,157.4205501999968,157.4205501999968,157.4205501999968,157.4205501999968,157.4205501999968,157.4205501999968,157.4205501999968,,005,P022,2025_May_13_1733,ConditionRich,2021.2.3,59.94125756688776,
127.75,128.0,41,0.0,Stimuli/Blank.png,0,0,0.0,0,55,55,55,,,,,,,,,,,,,127.77820030000294,0.028200300002936274,None,161.17386599999736,161.17386599999736,161.17386599999736,161.17386599999736,161.17386599999736,161.17386599999736,161.17386599999736,161.17386599999736,161.17386599999736,161.17386599999736,,005,P022,2025_May_13_1733,ConditionRich,2021.2.3,59.94125756688776,
128.0,131.75,13,0.75,Stimuli/P016/sun_bphvjnowixlryxot.jpg,1,2,2.75,0,56,56,56,,,,,,,,,,,,,128.0120414999983,0.012041499998304062,1,161.42409809999663,161.42409809999663,161.42409809999663,161.42409809999663,161.42409809999663,161.42409809999663,163.3924807000003,164.14314680000098,161.42409809999663,161.42409809999663,2.432488000005833,005,P022,2025_May_13_1733,ConditionRich,2021.2.3,59.94125756688776,
131.75,132.0,41,0.0,Stimuli/Blank.png,0,0,0.0,0,57,57,57,,,,,,,,,,,,,131.78146650000417,0.031466500004171394,None,165.1774077000009,165.1774077000009,165.1774077000009,165.1774077000009,165.1774077000009,165.1774077000009,165.1774077000009,165.1774077000009,165.1774077000009,165.1774077000009,,005,P022,2025_May_13_1733,ConditionRich,2021.2.3,59.94125756688776,
132.0,135.75,5,0.75,Stimuli/P016/sun_ajgmxbrxdpmsaext.jpg,0,0,0.0,0,58,58,58,,,,,,,,,,,,,132.0151371000029,0.015137100002903026,None,165.42762070000026,165.42762070000026,165.42762070000026,165.42762070000026,165.42762070000026,165.42762070000026,165.42762070000026,165.42762070000026,165.42762070000026,165.42762070000026,,005,P022,2025_May_13_1733,ConditionRich,2021.2.3,59.94125756688776,
135.75,136.0,41,0.0,Stimuli/Blank.png,0,0,0.0,0,59,59,59,,,,,,,,,,,,,135.76838770000177,0.01838770000176737,None,169.16433549999783,169.16433549999783,169.16433549999783,169.16433549999783,169.16433549999783,169.16433549999783,169.16433549999783,169.16433549999783,169.16433549999783,169.16433549999783,,005,P022,2025_May_13_1733,ConditionRich,2021.2.3,59.94125756688776,
136.0,139.75,32,0.75,Stimuli/P016/things_pheasant_08s.jpg,1,1,1.75,0,60,60,60,,,,,,,,,,,,,136.00261150000006,0.0026115000000572763,1,169.4144415999981,169.4144415999981,169.4144415999981,169.4144415999981,169.4144415999981,169.4144415999981,170.38200890000007,171.13265329999558,169.4144415999981,169.4144415999981,1.6273358999969787,005,P022,2025_May_13_1733,ConditionRich,2021.2.3,59.94125756688776,
139.75,140.0,41,0.0,Stimuli/Blank.png,0,0,0.0,0,61,61,61,,,,,,,,,,,,,139.772249499998,0.02224949999799719,None,173.16779369999858,173.16779369999858,173.16779369999858,173.16779369999858,173.16779369999858,173.16779369999858,173.16779369999858,173.16779369999858,173.16779369999858,173.16779369999858,,005,P022,2025_May_13_1733,ConditionRich,2021.2.3,59.94125756688776,
140.0,143.75,6,0.75,Stimuli/P016/sun_akecfasimgpbqcnt.jpg,0,0,0.0,0,62,62,62,,,,,,,,,,,,,140.0052805000014,0.005280500001390465,None,173.40133629999764,173.40133629999764,173.40133629999764,173.40133629999764,173.40133629999764,173.40133629999764,173.40133629999764,173.40133629999764,173.40133629999764,173.40133629999764,,005,P022,2025_May_13_1733,ConditionRich,2021.2.3,59.94125756688776,
143.75,144.0,41,0.0,Stimuli/Blank.png,0,0,0.0,0,63,63,63,,,,,,,,,,,,,143.75813980000385,0.008139800003846176,None,177.1548285999961,177.1548285999961,177.1548285999961,177.1548285999961,177.1548285999961,177.1548285999961,177.1548285999961,177.1548285999961,177.1548285999961,177.1548285999961,,005,P022,2025_May_13_1733,ConditionRich,2021.2.3,59.94125756688776,
144.0,147.75,7,0.75,Stimuli/P016/sun_aqdfrmtvewaapuqs.jpg,0,0,0.0,0,64,64,64,,,,,,,,,,,,,144.00973850000446,0.009738500004459638,None,177.4215866999948,177.4215866999948,177.4215866999948,177.4215866999948,177.4215866999948,177.4215866999948,177.4215866999948,177.4215866999948,177.4215866999948,177.4215866999948,,005,P022,2025_May_13_1733,ConditionRich,2021.2.3,59.94125756688776,
147.75,148.0,41,0.0,Stimuli/Blank.png,0,0,0.0,0,65,65,65,,,,,,,,,,,,,147.78107380000438,0.031073800004378427,None,181.19155649999448,181.19155649999448,181.19155649999448,181.19155649999448,181.19155649999448,181.19155649999448,181.19155649999448,181.19155649999448,181.19155649999448,181.19155649999448,,005,P022,2025_May_13_1733,ConditionRich,2021.2.3,59.94125756688776,
148.0,151.75,39,0.75,Stimuli/P016/things_window_08s.jpg,0,0,0.0,0,66,66,66,,,,,,,,,,,,,148.0286946999986,0.028694699998595752,None,181.44178879999527,181.44178879999527,181.44178879999527,181.44178879999527,181.44178879999527,181.44178879999527,181.44178879999527,181.44178879999527,181.44178879999527,181.44178879999527,,005,P022,2025_May_13_1733,ConditionRich,2021.2.3,59.94125756688776,
151.75,152.0,41,0.0,Stimuli/Blank.png,0,0,0.0,0,67,67,67,,,,,,,,,,,,,151.78185949999897,0.03185949999897275,None,185.17841559999943,185.17841559999943,185.17841559999943,185.17841559999943,185.17841559999943,185.17841559999943,185.17841559999943,185.17841559999943,185.17841559999943,185.17841559999943,,005,P022,2025_May_13_1733,ConditionRich,2021.2.3,59.94125756688776,
152.0,155.75,10,0.75,Stimuli/P016/sun_bfojpvrlsrtfyzio.jpg,0,0,0.0,0,68,68,68,,,,,,,,,,,,,152.01636310000322,0.01636310000321828,None,185.4119456999979,185.4119456999979,185.4119456999979,185.4119456999979,185.4119456999979,185.4119456999979,185.4119456999979,185.4119456999979,185.4119456999979,185.4119456999979,,005,P022,2025_May_13_1733,ConditionRich,2021.2.3,59.94125756688776,
155.75,156.0,41,0.0,Stimuli/Blank.png,0,0,0.0,0,69,69,69,,,,,,,,,,,,,155.75229969999782,0.0022996999978204258,None,189.1485898999963,189.1485898999963,189.1485898999963,189.1485898999963,189.1485898999963,189.1485898999963,189.1485898999963,189.1485898999963,189.1485898999963,189.1485898999963,,005,P022,2025_May_13_1733,ConditionRich,2021.2.3,59.94125756688776,
156.0,159.75,31,0.75,Stimuli/P016/things_outlet_08s.jpg,0,0,0.0,0,70,70,70,,,,,,,,,,,,,156.0029011000006,0.002901100000599399,None,189.41549079999822,189.41549079999822,189.41549079999822,189.41549079999822,189.41549079999822,189.41549079999822,189.41549079999822,189.41549079999822,189.41549079999822,189.41549079999822,,005,P022,2025_May_13_1733,ConditionRich,2021.2.3,59.94125756688776,
159.75,160.0,41,0.0,Stimuli/Blank.png,0,0,0.0,0,71,71,71,,,,,,,,,,,,,159.77257739999914,0.022577399999136105,None,193.16881859999557,193.16881859999557,193.16881859999557,193.16881859999557,193.16881859999557,193.16881859999557,193.16881859999557,193.16881859999557,193.16881859999557,193.16881859999557,,005,P022,2025_May_13_1733,ConditionRich,2021.2.3,59.94125756688776,
160.0,163.75,12,0.75,Stimuli/P016/sun_boffixsnbbloarty.jpg,0,0,0.0,0,72,72,72,,,,,,,,,,,,,160.00588389999757,0.005883899997570552,None,193.40234309999505,193.40234309999505,193.40234309999505,193.40234309999505,193.40234309999505,193.40234309999505,193.40234309999505,193.40234309999505,193.40234309999505,193.40234309999505,,005,P022,2025_May_13_1733,ConditionRich,2021.2.3,59.94125756688776,
163.75,164.0,41,0.0,Stimuli/Blank.png,0,0,0.0,0,73,73,73,,,,,,,,,,,,,163.76123969999753,0.011239699997531716,None,197.17234889999963,197.17234889999963,197.17234889999963,197.17234889999963,197.17234889999963,197.17234889999963,197.17234889999963,197.17234889999963,197.17234889999963,197.17234889999963,,005,P022,2025_May_13_1733,ConditionRich,2021.2.3,59.94125756688776,
164.0,167.75,35,0.75,Stimuli/P016/things_squid_08s.jpg,0,0,0.0,0,74,74,74,,,,,,,,,,,,,164.02595870000368,0.0259587000036845,None,197.42256310000084,197.42256310000084,197.42256310000084,197.42256310000084,197.42256310000084,197.42256310000084,197.42256310000084,197.42256310000084,197.42256310000084,197.42256310000084,,005,P022,2025_May_13_1733,ConditionRich,2021.2.3,59.94125756688776,
167.75,168.0,41,0.0,Stimuli/Blank.png,0,0,0.0,0,75,75,75,,,,,,,,,,,,,167.7634493000005,0.013449300000502262,None,201.15929229999892,201.15929229999892,201.15929229999892,201.15929229999892,201.15929229999892,201.15929229999892,201.15929229999892,201.15929229999892,201.15929229999892,201.15929229999892,,005,P022,2025_May_13_1733,ConditionRich,2021.2.3,59.94125756688776,
168.0,171.75,8,0.75,Stimuli/P016/sun_arldxotvfucvuudk.jpg,1,1,1.75,0,76,76,76,,,,,,,,,,,,,168.01328630000353,0.013286300003528595,1,201.42612329999974,201.42612329999974,201.42612329999974,201.42612329999974,201.42612329999974,201.42612329999974,202.3936867999946,203.14432809999562,201.42612329999974,201.42612329999974,1.4776681999937864,005,P022,2025_May_13_1733,ConditionRich,2021.2.3,59.94125756688776,
171.75,172.0,41,0.0,Stimuli/Blank.png,0,0,0.0,0,77,77,77,,,,,,,,,,,,,171.76700520000304,0.017005200003040954,None,205.1627440999946,205.1627440999946,205.1627440999946,205.1627440999946,205.1627440999946,205.1627440999946,205.1627440999946,205.1627440999946,205.1627440999946,205.1627440999946,,005,P022,2025_May_13_1733,ConditionRich,2021.2.3,59.94125756688776,
172.0,175.75,19,0.75,Stimuli/P016/sun_bzhwvgrzvttqoexa.jpg,0,0,0.0,0,78,78,78,,,,,,,,,,,,,172.00047189999896,0.0004718999989563599,None,205.4129840999958,205.4129840999958,205.4129840999958,205.4129840999958,205.4129840999958,205.4129840999958,205.4129840999958,205.4129840999958,205.4129840999958,205.4129840999958,,005,P022,2025_May_13_1733,ConditionRich,2021.2.3,59.94125756688776,
175.75,176.0,41,0.0,Stimuli/Blank.png,0,0,0.0,0,79,79,79,,,,,,,,,,,,,175.76994800000102,0.019948000001022592,None,209.16629000000103,209.16629000000103,209.16629000000103,209.16629000000103,209.16629000000103,209.16629000000103,209.16629000000103,209.16629000000103,209.16629000000103,209.16629000000103,,005,P022,2025_May_13_1733,ConditionRich,2021.2.3,59.94125756688776,
176.0,179.75,26,0.75,Stimuli/P016/things_face_08s.jpg,1,2,2.75,0,80,80,80,,,,,,,,,,,,,176.0035069000005,0.0035069000005023554,1,209.4165709000008,209.4165709000008,209.4165709000008,209.4165709000008,209.4165709000008,209.4165709000008,211.38494679999712,212.13561520000076,209.4165709000008,209.4165709000008,2.468997000003583,005,P022,2025_May_13_1733,ConditionRich,2021.2.3,59.94125756688776,
179.75,180.0,41,0.0,Stimuli/Blank.png,0,0,0.0,0,81,81,81,,,,,,,,,,,,,179.77639980000095,0.026399800000945106,None,213.1865140000009,213.1865140000009,213.1865140000009,213.1865140000009,213.1865140000009,213.1865140000009,213.1865140000009,213.1865140000009,213.1865140000009,213.1865140000009,,005,P022,2025_May_13_1733,ConditionRich,2021.2.3,59.94125756688776,
180.0,196.0,0,0.0,Stimuli/Blank.png,1,4,4.75,0,82,82,82,,,,,,,,,,,,,180.02429839999968,0.024298399999679532,1,213.42004189999716,213.42004189999716,213.42004189999716,213.42004189999716,213.42004189999716,213.42004189999716,217.40690560000075,218.1576161999983,213.42004189999716,213.42004189999716,4.70257610000408,005,P022,2025_May_13_1733,ConditionRich,2021.2.3,59.94125756688776,
196.0,199.75,32,0.75,Stimuli/P016/things_pheasant_08s.jpg,0,0,0.0,0,83,83,83,,,,,,,,,,,,,196.005548000001,0.005548000000999309,None,229.41752189999534,229.41752189999534,229.41752189999534,229.41752189999534,229.41752189999534,229.41752189999534,229.41752189999534,229.41752189999534,229.41752189999534,229.41752189999534,,005,P022,2025_May_13_1733,ConditionRich,2021.2.3,59.94125756688776,
199.75,200.0,41,0.0,Stimuli/Blank.png,0,0,0.0,0,84,84,84,,,,,,,,,,,,,199.77522060000047,0.02522060000046622,None,233.17084089999844,233.17084089999844,233.17084089999844,233.17084089999844,233.17084089999844,233.17084089999844,233.17084089999844,233.17084089999844,233.17084089999844,233.17084089999844,,005,P022,2025_May_13_1733,ConditionRich,2021.2.3,59.94125756688776,
200.0,203.75,38,0.75,Stimuli/P016/things_trumpet_08s.jpg,1,3,3.75,0,85,85,85,,,,,,,,,,,,,200.0087698999996,0.008769899999606423,1,233.4210591999945,233.4210591999945,233.4210591999945,233.4210591999945,233.4210591999945,233.4210591999945,236.39037269999972,237.1410420999964,233.4210591999945,233.4210591999945,3.6155495999992127,005,P022,2025_May_13_1733,ConditionRich,2021.2.3,59.94125756688776,
203.75,204.0,41,0.0,Stimuli/Blank.png,0,0,0.0,0,86,86,86,,,,,,,,,,,,,203.77799460000097,0.027994600000965875,None,237.17437779999455,237.17437779999455,237.17437779999455,237.17437779999455,237.17437779999455,237.17437779999455,237.17437779999455,237.17437779999455,237.17437779999455,237.17437779999455,,005,P022,2025_May_13_1733,ConditionRich,2021.2.3,59.94125756688776,
204.0,207.75,21,0.75,Stimuli/P016/things_arch_08s.jpg,1,2,2.75,0,87,87,87,,,,,,,,,,,,,204.01235520000046,0.012355200000456534,1,237.4079242000007,237.4079242000007,237.4079242000007,237.4079242000007,237.4079242000007,237.4079242000007,239.39304919999995,240.14369169999554,237.4079242000007,237.4079242000007,2.429766000001109,005,P022,2025_May_13_1733,ConditionRich,2021.2.3,59.94125756688776,
207.75,208.0,41,0.0,Stimuli/Blank.png,0,0,0.0,0,88,88,88,,,,,,,,,,,,,207.75130409999838,0.0013040999983786605,None,241.16124470000068,241.16124470000068,241.16124470000068,241.16124470000068,241.16124470000068,241.16124470000068,241.16124470000068,241.16124470000068,241.16124470000068,241.16124470000068,,005,P022,2025_May_13_1733,ConditionRich,2021.2.3,59.94125756688776,
208.0,211.75,15,0.75,Stimuli/P016/sun_bvfcijehgdsndfbg.jpg,0,0,0.0,0,89,89,89,,,,,,,,,,,,,208.01522970000224,0.015229700002237223,None,241.4114533999964,241.4114533999964,241.4114533999964,241.4114533999964,241.4114533999964,241.4114533999964,241.4114533999964,241.4114533999964,241.4114533999964,241.4114533999964,,005,P022,2025_May_13_1733,ConditionRich,2021.2.3,59.94125756688776,
211.75,212.0,41,0.0,Stimuli/Blank.png,0,0,0.0,0,90,90,90,,,,,,,,,,,,,211.7516945000025,0.0016945000024861656,None,245.14810269999725,245.14810269999725,245.14810269999725,245.14810269999725,245.14810269999725,245.14810269999725,245.14810269999725,245.14810269999725,245.14810269999725,245.14810269999725,,005,P022,2025_May_13_1733,ConditionRich,2021.2.3,59.94125756688776,
212.0,215.75,12,0.75,Stimuli/P016/sun_boffixsnbbloarty.jpg,0,0,0.0,0,91,91,91,,,,,,,,,,,,,212.00254629999836,0.0025462999983574264,None,245.39831889999914,245.39831889999914,245.39831889999914,245.39831889999914,245.39831889999914,245.39831889999914,245.39831889999914,245.39831889999914,245.39831889999914,245.39831889999914,,005,P022,2025_May_13_1733,ConditionRich,2021.2.3,59.94125756688776,
215.75,216.0,41,0.0,Stimuli/Blank.png,0,0,0.0,0,92,92,92,,,,,,,,,,,,,215.75571689999924,0.005716899999242742,None,249.15163659999962,249.15163659999962,249.15163659999962,249.15163659999962,249.15163659999962,249.15163659999962,249.15163659999962,249.15163659999962,249.15163659999962,249.15163659999962,,005,P022,2025_May_13_1733,ConditionRich,2021.2.3,59.94125756688776,
216.0,219.75,2,0.75,Stimuli/P016/sun_agzfkftryitnqpxc.jpg,0,0,0.0,0,93,93,93,,,,,,,,,,,,,216.0065964000023,0.0065964000023086555,None,249.41852949999884,249.41852949999884,249.41852949999884,249.41852949999884,249.41852949999884,249.41852949999884,249.41852949999884,249.41852949999884,249.41852949999884,249.41852949999884,,005,P022,2025_May_13_1733,ConditionRich,2021.2.3,59.94125756688776,
219.75,220.0,41,0.0,Stimuli/Blank.png,0,0,0.0,0,94,94,94,,,,,,,,,,,,,219.77548979999847,0.025489799998467788,None,253.17188289999467,253.17188289999467,253.17188289999467,253.17188289999467,253.17188289999467,253.17188289999467,253.17188289999467,253.17188289999467,253.17188289999467,253.17188289999467,,005,P022,2025_May_13_1733,ConditionRich,2021.2.3,59.94125756688776,
220.0,223.75,29,0.75,Stimuli/P016/things_mouse1_08s.jpg,0,0,0.0,0,95,95,95,,,,,,,,,,,,,220.01118560000032,0.011185600000317208,None,253.42210169999453,253.42210169999453,253.42210169999453,253.42210169999453,253.42210169999453,253.42210169999453,253.42210169999453,253.42210169999453,253.42210169999453,253.42210169999453,,005,P022,2025_May_13_1733,ConditionRich,2021.2.3,59.94125756688776,
223.75,224.0,41,0.0,Stimuli/Blank.png,0,0,0.0,0,96,96,96,,,,,,,,,,,,,223.78111910000007,0.03111910000006901,None,257.1920833999975,257.1920833999975,257.1920833999975,257.1920833999975,257.1920833999975,257.1920833999975,257.1920833999975,257.1920833999975,257.1920833999975,257.1920833999975,,005,P022,2025_May_13_1733,ConditionRich,2021.2.3,59.94125756688776,
224.0,227.75,40,0.75,Stimuli/P016/things_woman_08s.jpg,0,0,0.0,0,97,97,97,,,,,,,,,,,,,224.03119519999746,0.031195199997455347,None,257.44231829999626,257.44231829999626,257.44231829999626,257.44231829999626,257.44231829999626,257.44231829999626,257.44231829999626,257.44231829999626,257.44231829999626,257.44231829999626,,005,P022,2025_May_13_1733,ConditionRich,2021.2.3,59.94125756688776,
227.75,228.0,41,0.0,Stimuli/Blank.png,0,0,0.0,0,98,98,98,,,,,,,,,,,,,227.7670117000016,0.017011700001603458,None,261.1789518000005,261.1789518000005,261.1789518000005,261.1789518000005,261.1789518000005,261.1789518000005,261.1789518000005,261.1789518000005,261.1789518000005,261.1789518000005,,005,P022,2025_May_13_1733,ConditionRich,2021.2.3,59.94125756688776,
228.0,231.75,23,0.75,Stimuli/P016/things_boy_08s.jpg,0,0,0.0,0,99,99,99,,,,,,,,,,,,,228.0159280000007,0.015928000000712927,None,261.4124693999984,261.4124693999984,261.4124693999984,261.4124693999984,261.4124693999984,261.4124693999984,261.4124693999984,261.4124693999984,261.4124693999984,261.4124693999984,,005,P022,2025_May_13_1733,ConditionRich,2021.2.3,59.94125756688776,
231.75,232.0,41,0.0,Stimuli/Blank.png,0,0,0.0,0,100,100,100,,,,,,,,,,,,,231.75327639999887,0.0032763999988674186,None,265.14910509999754,265.14910509999754,265.14910509999754,265.14910509999754,265.14910509999754,265.14910509999754,265.14910509999754,265.14910509999754,265.14910509999754,265.14910509999754,,005,P022,2025_May_13_1733,ConditionRich,2021.2.3,59.94125756688776,
232.0,235.75,35,0.75,Stimuli/P016/things_squid_08s.jpg,0,0,0.0,0,101,101,101,,,,,,,,,,,,,232.0038199999981,0.003819999998086132,None,265.4160187999951,265.4160187999951,265.4160187999951,265.4160187999951,265.4160187999951,265.4160187999951,265.4160187999951,265.4160187999951,265.4160187999951,265.4160187999951,,005,P022,2025_May_13_1733,ConditionRich,2021.2.3,59.94125756688776,
235.75,236.0,41,0.0,Stimuli/Blank.png,0,0,0.0,0,102,102,102,,,,,,,,,,,,,235.77345680000144,0.02345680000144057,None,269.1693249999953,269.1693249999953,269.1693249999953,269.1693249999953,269.1693249999953,269.1693249999953,269.1693249999953,269.1693249999953,269.1693249999953,269.1693249999953,,005,P022,2025_May_13_1733,ConditionRich,2021.2.3,59.94125756688776,
236.0,239.75,7,0.75,Stimuli/P016/sun_aqdfrmtvewaapuqs.jpg,0,0,0.0,0,103,103,103,,,,,,,,,,,,,236.0067670999997,0.006767099999706261,None,269.40287589999934,269.40287589999934,269.40287589999934,269.40287589999934,269.40287589999934,269.40287589999934,269.40287589999934,269.40287589999934,269.40287589999934,269.40287589999934,,005,P022,2025_May_13_1733,ConditionRich,2021.2.3,59.94125756688776,
239.75,240.0,41,0.0,Stimuli/Blank.png,0,0,0.0,0,104,104,104,,,,,,,,,,,,,239.76055749999796,0.010557499997958075,None,273.15618549999635,273.15618549999635,273.15618549999635,273.15618549999635,273.15618549999635,273.15618549999635,273.15618549999635,273.15618549999635,273.15618549999635,273.15618549999635,,005,P022,2025_May_13_1733,ConditionRich,2021.2.3,59.94125756688776,
240.0,243.75,36,0.75,Stimuli/P016/things_streetlight_08s.jpg,0,0,0.0,0,105,105,105,,,,,,,,,,,,,240.01001440000255,0.010014400002546608,None,273.4064178999979,273.4064178999979,273.4064178999979,273.4064178999979,273.4064178999979,273.4064178999979,273.4064178999979,273.4064178999979,273.4064178999979,273.4064178999979,,005,P022,2025_May_13_1733,ConditionRich,2021.2.3,59.94125756688776,
243.75,244.0,41,0.0,Stimuli/Blank.png,0,0,0.0,0,106,106,106,,,,,,,,,,,,,243.7662429999982,0.016242999998212326,None,277.1764127999995,277.1764127999995,277.1764127999995,277.1764127999995,277.1764127999995,277.1764127999995,277.1764127999995,277.1764127999995,277.1764127999995,277.1764127999995,,005,P022,2025_May_13_1733,ConditionRich,2021.2.3,59.94125756688776,
244.0,247.75,11,0.75,Stimuli/P016/sun_bnwmcjuinqbdsbho.jpg,0,0,0.0,0,107,107,107,,,,,,,,,,,,,244.01620199999888,0.016201999998884276,None,277.4266365000003,277.4266365000003,277.4266365000003,277.4266365000003,277.4266365000003,277.4266365000003,277.4266365000003,277.4266365000003,277.4266365000003,277.4266365000003,,005,P022,2025_May_13_1733,ConditionRich,2021.2.3,59.94125756688776,
247.75,248.0,41,0.0,Stimuli/Blank.png,0,0,0.0,0,108,108,108,,,,,,,,,,,,,247.76668690000224,0.0166869000022416,None,281.1632606999992,281.1632606999992,281.1632606999992,281.1632606999992,281.1632606999992,281.1632606999992,281.1632606999992,281.1632606999992,281.1632606999992,281.1632606999992,,005,P022,2025_May_13_1733,ConditionRich,2021.2.3,59.94125756688776,
248.0,251.75,22,0.75,Stimuli/P016/things_baby_08s.jpg,0,0,0.0,0,109,109,109,,,,,,,,,,,,,248.00113129999954,0.0011312999995425344,None,281.3967960999944,281.3967960999944,281.3967960999944,281.3967960999944,281.3967960999944,281.3967960999944,281.3967960999944,281.3967960999944,281.3967960999944,281.3967960999944,,005,P022,2025_May_13_1733,ConditionRich,2021.2.3,59.94125756688776,
251.75,252.0,41,0.0,Stimuli/Blank.png,0,0,0.0,0,110,110,110,,,,,,,,,,,,,251.75614540000242,0.0061454000024241395,None,285.1668165999945,285.1668165999945,285.1668165999945,285.1668165999945,285.1668165999945,285.1668165999945,285.1668165999945,285.1668165999945,285.1668165999945,285.1668165999945,,005,P022,2025_May_13_1733,ConditionRich,2021.2.3,59.94125756688776,
252.0,255.75,17,0.75,Stimuli/P016/sun_bxhbltvqnpaciuzt.jpg,1,3,3.75,0,111,111,111,,,,,,,,,,,,,252.02076050000323,0.020760500003234483,1,285.41702059999807,285.41702059999807,285.41702059999807,285.41702059999807,285.41702059999807,285.41702059999807,288.40304299999843,None,285.41702059999807,285.41702059999807,3.478492299997015,005,P022,2025_May_13_1733,ConditionRich,2021.2.3,59.94125756688776,
255.75,256.0,41,0.0,Stimuli/Blank.png,0,0,0.0,0,112,112,112,,,,,,,,,,,,,255.75846679999813,0.008466799998132046,None,289.15450069999497,289.15450069999497,289.15450069999497,289.15450069999497,289.15450069999497,289.15450069999497,289.15450069999497,289.15450069999497,289.15450069999497,289.15450069999497,,005,P022,2025_May_13_1733,ConditionRich,2021.2.3,59.94125756688776,
256.0,259.75,14,0.75,Stimuli/P016/sun_bpvmkbyglkraoxhh.jpg,0,0,0.0,0,113,113,113,,,,,,,,,,,,,256.00746049999725,0.007460499997250736,None,289.4206142999974,289.4206142999974,289.4206142999974,289.4206142999974,289.4206142999974,289.4206142999974,289.4206142999974,289.4206142999974,289.4206142999974,289.4206142999974,,005,P022,2025_May_13_1733,ConditionRich,2021.2.3,59.94125756688776,
259.75,260.0,41,0.0,Stimuli/Blank.png,0,0,0.0,0,114,114,114,,,,,,,,,,,,,259.77797580000333,0.02797580000333255,None,293.17388180000125,293.17388180000125,293.17388180000125,293.17388180000125,293.17388180000125,293.17388180000125,293.17388180000125,293.17388180000125,293.17388180000125,293.17388180000125,,005,P022,2025_May_13_1733,ConditionRich,2021.2.3,59.94125756688776,
260.0,263.75,6,0.75,Stimuli/P016/sun_akecfasimgpbqcnt.jpg,0,0,0.0,0,115,115,115,,,,,,,,,,,,,260.01185070000065,0.01185070000065025,None,293.40742339999997,293.40742339999997,293.40742339999997,293.40742339999997,293.40742339999997,293.40742339999997,293.40742339999997,293.40742339999997,293.40742339999997,293.40742339999997,,005,P022,2025_May_13_1733,ConditionRich,2021.2.3,59.94125756688776,
263.75,264.0,41,0.0,Stimuli/Blank.png,0,0,0.0,0,116,116,116,,,,,,,,,,,,,263.7673805000013,0.017380500001308974,None,297.17742369999905,297.17742369999905,297.17742369999905,297.17742369999905,297.17742369999905,297.17742369999905,297.17742369999905,297.17742369999905,297.17742369999905,297.17742369999905,,005,P022,2025_May_13_1733,ConditionRich,2021.2.3,59.94125756688776,
264.0,267.75,3,0.75,Stimuli/P016/sun_aiogwnavezqxkzfg.jpg,1,1,1.75,0,117,117,117,,,,,,,,,,,,,264.01658110000426,0.016581100004259497,1,297.4276507999966,297.4276507999966,297.4276507999966,297.4276507999966,297.4276507999966,297.4276507999966,298.4118404999972,299.16250919999584,297.4276507999966,297.4276507999966,1.469994700004463,005,P022,2025_May_13_1733,ConditionRich,2021.2.3,59.94125756688776,
267.75,268.0,41,0.0,Stimuli/Blank.png,0,0,0.0,0,118,118,118,,,,,,,,,,,,,267.7678911999974,0.017891199997393414,None,301.1642891999945,301.1642891999945,301.1642891999945,301.1642891999945,301.1642891999945,301.1642891999945,301.1642891999945,301.1642891999945,301.1642891999945,301.1642891999945,,005,P022,2025_May_13_1733,ConditionRich,2021.2.3,59.94125756688776,
268.0,271.75,9,0.75,Stimuli/P016/sun_bbdgftzhpkaklkll.jpg,0,0,0.0,0,119,119,119,,,,,,,,,,,,,268.00130219999846,0.0013021999984630384,None,301.3978150999974,301.3978150999974,301.3978150999974,301.3978150999974,301.3978150999974,301.3978150999974,301.3978150999974,301.3978150999974,301.3978150999974,301.3978150999974,,005,P022,2025_May_13_1733,ConditionRich,2021.2.3,59.94125756688776,
271.75,272.0,41,0.0,Stimuli/Blank.png,0,0,0.0,0,120,120,120,,,,,,,,,,,,,271.75532060000114,0.005320600001141429,None,305.1511395999987,305.1511395999987,305.1511395999987,305.1511395999987,305.1511395999987,305.1511395999987,305.1511395999987,305.1511395999987,305.1511395999987,305.1511395999987,,005,P022,2025_May_13_1733,ConditionRich,2021.2.3,59.94125756688776,
272.0,275.75,19,0.75,Stimuli/P016/sun_bzhwvgrzvttqoexa.jpg,0,0,0.0,0,121,121,121,,,,,,,,,,,,,272.00547409999854,0.005474099998536985,None,305.4013750000013,305.4013750000013,305.4013750000013,305.4013750000013,305.4013750000013,305.4013750000013,305.4013750000013,305.4013750000013,305.4013750000013,305.4013750000013,,005,P022,2025_May_13_1733,ConditionRich,2021.2.3,59.94125756688776,
275.75,276.0,41,0.0,Stimuli/Blank.png,0,0,0.0,0,122,122,122,,,,,,,,,,,,,275.7611881999983,0.011188199998287018,None,309.17136429999664,309.17136429999664,309.17136429999664,309.17136429999664,309.17136429999664,309.17136429999664,309.17136429999664,309.17136429999664,309.17136429999664,309.17136429999664,,005,P022,2025_May_13_1733,ConditionRich,2021.2.3,59.94125756688776,
276.0,292.0,0,0.0,Stimuli/Blank.png,1,7,7.75,0,123,123,123,,,,,,,,,,,,,276.0251255000039,0.025125500003923662,1,309.42162339999777,309.42162339999777,309.42162339999777,309.42162339999777,309.42162339999777,309.42162339999777,316.4110965,317.1617737999986,309.42162339999777,309.42162339999777,7.368056999999681,005,P022,2025_May_13_1733,ConditionRich,2021.2.3,59.94125756688776,
292.0,295.75,37,0.75,Stimuli/P016/things_swizzle_stick_08s.jpg,1,0,0.75,0,124,124,124,,,,,,,,,,,,,292.00785760000144,0.007857600001443643,1,325.41921519999596,325.41921519999596,325.41921519999596,325.41921519999596,325.41921519999596,325.41921519999596,325.41921519999596,326.13637759999983,325.41921519999596,325.41921519999596,0.538610499999777,005,P022,2025_May_13_1733,ConditionRich,2021.2.3,59.94125756688776,
295.75,296.0,41,0.0,Stimuli/Blank.png,0,0,0.0,0,125,125,125,,,,,,,,,,,,,295.7771090000024,0.027109000002383254,None,329.17237499999464,329.17237499999464,329.17237499999464,329.17237499999464,329.17237499999464,329.17237499999464,329.17237499999464,329.17237499999464,329.17237499999464,329.17237499999464,,005,P022,2025_May_13_1733,ConditionRich,2021.2.3,59.94125756688776,
296.0,299.75,18,0.75,Stimuli/P016/sun_byavixgfuhzioilz.jpg,0,0,0.0,0,126,126,126,,,,,,,,,,,,,296.010240100004,0.010240100004011765,None,329.42259439999907,329.42259439999907,329.42259439999907,329.42259439999907,329.42259439999907,329.42259439999907,329.42259439999907,329.42259439999907,329.42259439999907,329.42259439999907,,005,P022,2025_May_13_1733,ConditionRich,2021.2.3,59.94125756688776,
299.75,300.0,41,0.0,Stimuli/Blank.png,0,0,0.0,0,127,127,127,,,,,,,,,,,,,299.7814068000007,0.03140680000069551,None,333.19261469999765,333.19261469999765,333.19261469999765,333.19261469999765,333.19261469999765,333.19261469999765,333.19261469999765,333.19261469999765,333.19261469999765,333.19261469999765,,005,P022,2025_May_13_1733,ConditionRich,2021.2.3,59.94125756688776,
300.0,303.75,5,0.75,Stimuli/P016/sun_ajgmxbrxdpmsaext.jpg,0,0,0.0,0,128,128,128,,,,,,,,,,,,,300.0303292000026,0.030329200002597645,None,333.44282340000063,333.44282340000063,333.44282340000063,333.44282340000063,333.44282340000063,333.44282340000063,333.44282340000063,333.44282340000063,333.44282340000063,333.44282340000063,,005,P022,2025_May_13_1733,ConditionRich,2021.2.3,59.94125756688776,
303.75,304.0,41,0.0,Stimuli/Blank.png,0,0,0.0,0,129,129,129,,,,,,,,,,,,,303.76736040000105,0.017360400001052767,None,337.1627872999961,337.1627872999961,337.1627872999961,337.1627872999961,337.1627872999961,337.1627872999961,337.1627872999961,337.1627872999961,337.1627872999961,337.1627872999961,,005,P022,2025_May_13_1733,ConditionRich,2021.2.3,59.94125756688776,
304.0,307.75,26,0.75,Stimuli/P016/things_face_08s.jpg,1,1,1.75,0,130,130,130,,,,,,,,,,,,,304.0005472999983,0.0005472999982885085,1,337.41299530000106,337.41299530000106,337.41299530000106,337.41299530000106,337.41299530000106,337.41299530000106,338.3805321999971,339.13118169999507,337.41299530000106,337.41299530000106,1.4068388000014238,005,P022,2025_May_13_1733,ConditionRich,2021.2.3,59.94125756688776,
307.75,308.0,41,0.0,Stimuli/Blank.png,0,0,0.0,0,131,131,131,,,,,,,,,,,,,307.7705905000039,0.020590500003891066,None,341.16633219999494,341.16633219999494,341.16633219999494,341.16633219999494,341.16633219999494,341.16633219999494,341.16633219999494,341.16633219999494,341.16633219999494,341.16633219999494,,005,P022,2025_May_13_1733,ConditionRich,2021.2.3,59.94125756688776,
308.0,311.75,1,0.75,Stimuli/P016/sun_aacpzgqrortyhyss.jpg,0,0,0.0,0,132,132,132,,,,,,,,,,,,,308.00645330000407,0.006453300004068296,None,341.4165348999959,341.4165348999959,341.4165348999959,341.4165348999959,341.4165348999959,341.4165348999959,341.4165348999959,341.4165348999959,341.4165348999959,341.4165348999959,,005,P022,2025_May_13_1733,ConditionRich,2021.2.3,59.94125756688776,
311.75,312.0,41,0.0,Stimuli/Blank.png,0,0,0.0,0,133,133,133,,,,,,,,,,,,,311.7773030000026,0.027303000002575573,None,345.1865620999961,345.1865620999961,345.1865620999961,345.1865620999961,345.1865620999961,345.1865620999961,345.1865620999961,345.1865620999961,345.1865620999961,345.1865620999961,,005,P022,2025_May_13_1733,ConditionRich,2021.2.3,59.94125756688776,
312.0,315.75,34,0.75,Stimuli/P016/things_shower_cap_08s.jpg,0,0,0.0,0,134,134,134,,,,,,,,,,,,,312.02363850000256,0.02363850000256207,None,345.4367723999967,345.4367723999967,345.4367723999967,345.4367723999967,345.4367723999967,345.4367723999967,345.4367723999967,345.4367723999967,345.4367723999967,345.4367723999967,,005,P022,2025_May_13_1733,ConditionRich,2021.2.3,59.94125756688776,
315.75,316.0,41,0.0,Stimuli/Blank.png,0,0,0.0,0,135,135,135,,,,,,,,,,,,,315.77740020000056,0.02740020000055665,None,349.17340929999773,349.17340929999773,349.17340929999773,349.17340929999773,349.17340929999773,349.17340929999773,349.17340929999773,349.17340929999773,349.17340929999773,349.17340929999773,,005,P022,2025_May_13_1733,ConditionRich,2021.2.3,59.94125756688776,
316.0,319.75,8,0.75,Stimuli/P016/sun_arldxotvfucvuudk.jpg,0,0,0.0,0,136,136,136,,,,,,,,,,,,,316.0105693000005,0.010569300000497606,None,349.4069276999944,349.4069276999944,349.4069276999944,349.4069276999944,349.4069276999944,349.4069276999944,349.4069276999944,349.4069276999944,349.4069276999944,349.4069276999944,,005,P022,2025_May_13_1733,ConditionRich,2021.2.3,59.94125756688776,
319.75,320.0,41,0.0,Stimuli/Blank.png,0,0,0.0,0,137,137,137,,,,,,,,,,,,,319.7637995000041,0.013799500004097354,None,353.1603315999964,353.1603315999964,353.1603315999964,353.1603315999964,353.1603315999964,353.1603315999964,353.1603315999964,353.1603315999964,353.1603315999964,353.1603315999964,,005,P022,2025_May_13_1733,ConditionRich,2021.2.3,59.94125756688776,
320.0,323.75,31,0.75,Stimuli/P016/things_outlet_08s.jpg,0,0,0.0,0,138,138,138,,,,,,,,,,,,,320.01707819999865,0.017078199998650234,None,353.4271493999986,353.4271493999986,353.4271493999986,353.4271493999986,353.4271493999986,353.4271493999986,353.4271493999986,353.4271493999986,353.4271493999986,353.4271493999986,,005,P022,2025_May_13_1733,ConditionRich,2021.2.3,59.94125756688776,
323.75,324.0,41,0.0,Stimuli/Blank.png,0,0,0.0,0,139,139,139,,,,,,,,,,,,,323.7673485999985,0.017348599998513237,None,357.16379649999726,357.16379649999726,357.16379649999726,357.16379649999726,357.16379649999726,357.16379649999726,357.16379649999726,357.16379649999726,357.16379649999726,357.16379649999726,,005,P022,2025_May_13_1733,ConditionRich,2021.2.3,59.94125756688776,
324.0,327.75,27,0.75,Stimuli/P016/things_girl_08s.jpg,0,0,0.0,0,140,140,140,,,,,,,,,,,,,324.0016046000019,0.0016046000018832274,None,357.4140228999968,357.4140228999968,357.4140228999968,357.4140228999968,357.4140228999968,357.4140228999968,357.4140228999968,357.4140228999968,357.4140228999968,357.4140228999968,,005,P022,2025_May_13_1733,ConditionRich,2021.2.3,59.94125756688776,
327.75,328.0,41,0.0,Stimuli/Blank.png,0,0,0.0,0,141,141,141,,,,,,,,,,,,,327.77165680000326,0.02165680000325665,None,361.1673293999993,361.1673293999993,361.1673293999993,361.1673293999993,361.1673293999993,361.1673293999993,361.1673293999993,361.1673293999993,361.1673293999993,361.1673293999993,,005,P022,2025_May_13_1733,ConditionRich,2021.2.3,59.94125756688776,
328.0,331.75,39,0.75,Stimuli/P016/things_window_08s.jpg,0,0,0.0,0,142,142,142,,,,,,,,,,,,,328.00512940000044,0.005129400000441819,None,361.41754729999957,361.41754729999957,361.41754729999957,361.41754729999957,361.41754729999957,361.41754729999957,361.41754729999957,361.41754729999957,361.41754729999957,361.41754729999957,,005,P022,2025_May_13_1733,ConditionRich,2021.2.3,59.94125756688776,
331.75,332.0,41,0.0,Stimuli/Blank.png,0,0,0.0,0,143,143,143,,,,,,,,,,,,,331.77526249999937,0.025262499999371357,None,365.1708781999987,365.1708781999987,365.1708781999987,365.1708781999987,365.1708781999987,365.1708781999987,365.1708781999987,365.1708781999987,365.1708781999987,365.1708781999987,,005,P022,2025_May_13_1733,ConditionRich,2021.2.3,59.94125756688776,
332.0,335.75,24,0.75,Stimuli/P016/things_bunkbed_08s.jpg,1,3,3.75,0,144,144,144,,,,,,,,,,,,,332.00797830000374,0.007978300003742334,1,365.4044114999997,365.4044114999997,365.4044114999997,365.4044114999997,365.4044114999997,365.4044114999997,368.3904012999992,369.1410579000003,365.4044114999997,365.4044114999997,3.5501216999982717,005,P022,2025_May_13_1733,ConditionRich,2021.2.3,59.94125756688776,
335.75,336.0,41,0.0,Stimuli/Blank.png,0,0,0.0,0,145,145,145,,,,,,,,,,,,,335.7619967999999,0.011996799999906216,None,369.1577344999969,369.1577344999969,369.1577344999969,369.1577344999969,369.1577344999969,369.1577344999969,369.1577344999969,369.1577344999969,369.1577344999969,369.1577344999969,,005,P022,2025_May_13_1733,ConditionRich,2021.2.3,59.94125756688776,
336.0,339.75,16,0.75,Stimuli/P016/sun_bwhuwxazfqwuqhik.jpg,0,0,0.0,0,146,146,146,,,,,,,,,,,,,336.01250040000014,0.012500400000135414,None,369.40794489999826,369.40794489999826,369.40794489999826,369.40794489999826,369.40794489999826,369.40794489999826,369.40794489999826,369.40794489999826,369.40794489999826,369.40794489999826,,005,P022,2025_May_13_1733,ConditionRich,2021.2.3,59.94125756688776,
339.75,340.0,41,0.0,Stimuli/Blank.png,0,0,0.0,0,147,147,147,,,,,,,,,,,,,339.7481732000015,-0.00182679999852553,None,373.14458970000123,373.14458970000123,373.14458970000123,373.14458970000123,373.14458970000123,373.14458970000123,373.14458970000123,373.14458970000123,373.14458970000123,373.14458970000123,,005,P022,2025_May_13_1733,ConditionRich,2021.2.3,59.94125756688776,
340.0,343.75,30,0.75,Stimuli/P016/things_ottoman_08s.jpg,0,0,0.0,0,148,148,148,,,,,,,,,,,,,340.0162425000017,0.016242500001681037,None,373.4282038999954,373.4282038999954,373.4282038999954,373.4282038999954,373.4282038999954,373.4282038999954,373.4282038999954,373.4282038999954,373.4282038999954,373.4282038999954,,005,P022,2025_May_13_1733,ConditionRich,2021.2.3,59.94125756688776,
343.75,344.0,41,0.0,Stimuli/Blank.png,0,0,0.0,0,149,149,149,,,,,,,,,,,,,343.7695573000019,0.019557300001906697,None,377.16480749999755,377.16480749999755,377.16480749999755,377.16480749999755,377.16480749999755,377.16480749999755,377.16480749999755,377.16480749999755,377.16480749999755,377.16480749999755,,005,P022,2025_May_13_1733,ConditionRich,2021.2.3,59.94125756688776,
344.0,347.75,25,0.75,Stimuli/P016/things_deer_08s.jpg,0,0,0.0,0,150,150,150,,,,,,,,,,,,,344.00206260000414,0.0020626000041374937,None,377.41505699999834,377.41505699999834,377.41505699999834,377.41505699999834,377.41505699999834,377.41505699999834,377.41505699999834,377.41505699999834,377.41505699999834,377.41505699999834,,005,P022,2025_May_13_1733,ConditionRich,2021.2.3,59.94125756688776,
347.75,348.0,41,0.0,Stimuli/Blank.png,0,0,0.0,0,151,151,151,,,,,,,,,,,,,347.77201420000347,0.02201420000346843,None,381.1683406999946,381.1683406999946,381.1683406999946,381.1683406999946,381.1683406999946,381.1683406999946,381.1683406999946,381.1683406999946,381.1683406999946,381.1683406999946,,005,P022,2025_May_13_1733,ConditionRich,2021.2.3,59.94125756688776,
348.0,351.75,20,0.75,Stimuli/P016/sun_bzmxulijbnmshodq.jpg,0,0,0.0,0,152,152,152,,,,,,,,,,,,,348.006126100001,0.00612610000098357,None,381.4185750999968,381.4185750999968,381.4185750999968,381.4185750999968,381.4185750999968,381.4185750999968,381.4185750999968,381.4185750999968,381.4185750999968,381.4185750999968,,005,P022,2025_May_13_1733,ConditionRich,2021.2.3,59.94125756688776,
351.75,352.0,41,0.0,Stimuli/Blank.png,0,0,0.0,0,153,153,153,,,,,,,,,,,,,351.7759384000019,0.025938400001905393,None,385.1718815999993,385.1718815999993,385.1718815999993,385.1718815999993,385.1718815999993,385.1718815999993,385.1718815999993,385.1718815999993,385.1718815999993,385.1718815999993,,005,P022,2025_May_13_1733,ConditionRich,2021.2.3,59.94125756688776,
352.0,355.75,10,0.75,Stimuli/P016/sun_bfojpvrlsrtfyzio.jpg,0,0,0.0,0,154,154,154,,,,,,,,,,,,,352.0114564000032,0.011456400003226008,None,385.4221172999969,385.4221172999969,385.4221172999969,385.4221172999969,385.4221172999969,385.4221172999969,385.4221172999969,385.4221172999969,385.4221172999969,385.4221172999969,,005,P022,2025_May_13_1733,ConditionRich,2021.2.3,59.94125756688776,
355.75,356.0,41,0.0,Stimuli/Blank.png,0,0,0.0,0,155,155,155,,,,,,,,,,,,,355.78040229999897,0.030402299998968374,None,389.17542259999755,389.17542259999755,389.17542259999755,389.17542259999755,389.17542259999755,389.17542259999755,389.17542259999755,389.17542259999755,389.17542259999755,389.17542259999755,,005,P022,2025_May_13_1733,ConditionRich,2021.2.3,59.94125756688776,
356.0,359.75,4,0.75,Stimuli/P016/sun_aiwuqxdqzftsfyeg.jpg,0,0,0.0,0,156,156,156,,,,,,,,,,,,,356.01314560000174,0.013145600001735147,None,389.42565759999707,389.42565759999707,389.42565759999707,389.42565759999707,389.42565759999707,389.42565759999707,389.42565759999707,389.42565759999707,389.42565759999707,389.42565759999707,,005,P022,2025_May_13_1733,ConditionRich,2021.2.3,59.94125756688776,
359.75,360.0,41,0.0,Stimuli/Blank.png,0,0,0.0,0,157,157,157,,,,,,,,,,,,,359.7666296000025,0.016629600002488587,None,393.1622602999996,393.1622602999996,393.1622602999996,393.1622602999996,393.1622602999996,393.1622602999996,393.1622602999996,393.1622602999996,393.1622602999996,393.1622602999996,,005,P022,2025_May_13_1733,ConditionRich,2021.2.3,59.94125756688776,
360.0,363.75,28,0.75,Stimuli/P016/things_latte_08s.jpg,0,0,0.0,0,158,158,158,,,,,,,,,,,,,360.00252570000157,0.0025257000015699305,None,393.4125075999982,393.4125075999982,393.4125075999982,393.4125075999982,393.4125075999982,393.4125075999982,393.4125075999982,393.4125075999982,393.4125075999982,393.4125075999982,,005,P022,2025_May_13_1733,ConditionRich,2021.2.3,59.94125756688776,
363.75,364.0,41,0.0,Stimuli/Blank.png,0,0,0.0,0,159,159,159,,,,,,,,,,,,,363.77118560000235,0.021185600002354477,None,397.1825031999979,397.1825031999979,397.1825031999979,397.1825031999979,397.1825031999979,397.1825031999979,397.1825031999979,397.1825031999979,397.1825031999979,397.1825031999979,,005,P022,2025_May_13_1733,ConditionRich,2021.2.3,59.94125756688776,
364.0,367.75,13,0.75,Stimuli/P016/sun_bphvjnowixlryxot.jpg,1,1,1.75,0,160,160,160,,,,,,,,,,,,,364.0204764000009,0.02047640000091633,1,397.4327181999979,397.4327181999979,397.4327181999979,397.4327181999979,397.4327181999979,397.4327181999979,398.40024369999446,399.15092300000106,397.4327181999979,397.4327181999979,1.4629585000002407,005,P022,2025_May_13_1733,ConditionRich,2021.2.3,59.94125756688776,
367.75,368.0,41,0.0,Stimuli/Blank.png,0,0,0.0,0,161,161,161,,,,,,,,,,,,,367.773002300004,0.023002300004009157,None,401.16936259999784,401.16936259999784,401.16936259999784,401.16936259999784,401.16936259999784,401.16936259999784,401.16936259999784,401.16936259999784,401.16936259999784,401.16936259999784,,005,P022,2025_May_13_1733,ConditionRich,2021.2.3,59.94125756688776,
368.0,371.75,33,0.75,Stimuli/P016/things_raccoon_08n.jpg,0,0,0.0,0,162,162,162,,,,,,,,,,,,,368.0064652000001,0.0064652000000933185,None,401.4029057999942,401.4029057999942,401.4029057999942,401.4029057999942,401.4029057999942,401.4029057999942,401.4029057999942,401.4029057999942,401.4029057999942,401.4029057999942,,005,P022,2025_May_13_1733,ConditionRich,2021.2.3,59.94125756688776,
371.75,372.0,41,0.0,Stimuli/Blank.png,0,0,0.0,0,163,163,163,,,,,,,,,,,,,371.7602582000036,0.0102582000035909,None,405.1562249999988,405.1562249999988,405.1562249999988,405.1562249999988,405.1562249999988,405.1562249999988,405.1562249999988,405.1562249999988,405.1562249999988,405.1562249999988,,005,P022,2025_May_13_1733,ConditionRich,2021.2.3,59.94125756688776,
372.0,388.0,0,0.0,Stimuli/Blank.png,1,2,2.75,0,164,164,164,,,,,,,,,,,,,372.0109480000028,0.01094800000282703,1,405.40645189999486,405.40645189999486,405.40645189999486,405.40645189999486,405.40645189999486,405.40645189999486,407.39152179999655,408.1421862999996,405.40645189999486,405.40645189999486,2.4821374000021024,005,P022,2025_May_13_1733,ConditionRich,2021.2.3,59.94125756688776,
