eventStartTime,eventEndTime,eventCond,imSize,imFile,responseEvent,fixRespStart,fixRespEnd,Events.thisRepN,Events.thisTrialN,Events.thisN,Events.thisIndex,Instructions.started,Instructions.stopped,participantReadyResponse.keys,participantReadyResponse.rt,participantReadyResponse.started,participantReadyResponse.stopped,startWaitforTrigger,triggerResponse.keys,triggerResponse.rt,triggerResponse.started,triggerResponse.stopped,globalTimer,actualStartTime,startTimingDiff,participantResponse.keys,participantResponse.started,participantResponse.stopped,image.started,image.stopped,fixationOutside.started,fixationOutside.stopped,fixationResponse.started,fixationResponse.stopped,fixationInside.started,fixationInside.stopped,participantResponse.rt,session,participant,date,expName,psychopyVersion,frameRate,
,,,,,,,,,,,,14.825381599999673,None,1,6.19108160000178,14.825381599999673,None,,,,,,,,,,,,,,,,,,,,,006,P022,2025_May_13_1740,ConditionRich,2021.2.3,59.92581184685135,
,,,,,,,,,,,,,,,,,,21.028145700001915,5,14.569249100000889,21.04110899999796,None,,,,,,,,,,,,,,,,006,P022,2025_May_13_1740,ConditionRich,2021.2.3,59.92581184685135,
0.0,4.0,0,0.0,Stimuli/Blank.png,0,0,0.0,0,0,0,0,,,,,,,,,,,,35.62421549999999,0.059123400002135895,0.059123400002135895,None,35.70403349999833,None,35.70403349999833,None,35.70403349999833,None,35.70403349999833,35.70403349999833,35.70403349999833,None,,006,P022,2025_May_13_1740,ConditionRich,2021.2.3,59.92581184685135,
4.0,4.75,12,0.75,Stimuli/P016/sun_boffixsnbbloarty.jpg,0,0,0.0,0,1,1,1,,,,,,,,,,,,,4.021186500001932,0.021186500001931563,None,39.65778929999942,39.65778929999942,39.65778929999942,39.65778929999942,39.65778929999942,39.65778929999942,39.65778929999942,39.65778929999942,39.65778929999942,39.65778929999942,,006,P022,2025_May_13_1740,ConditionRich,2021.2.3,59.92581184685135,
4.75,5.0,41,0.0,Stimuli/Blank.png,0,0,0.0,0,2,2,2,,,,,,,,,,,,,4.75337440000294,0.0033744000029400922,None,40.39180650000344,40.39180650000344,40.39180650000344,40.39180650000344,40.39180650000344,40.39180650000344,40.39180650000344,40.39180650000344,40.39180650000344,40.39180650000344,,006,P022,2025_May_13_1740,ConditionRich,2021.2.3,59.92581184685135,
5.0,5.75,12,0.75,Stimuli/P016/sun_boffixsnbbloarty.jpg,0,0,0.0,0,3,3,3,,,,,,,,,,,,,5.003607400001783,0.0036074000017833896,None,40.641712099997676,40.641712099997676,40.641712099997676,40.641712099997676,40.641712099997676,40.641712099997676,40.641712099997676,40.641712099997676,40.641712099997676,40.641712099997676,,006,P022,2025_May_13_1740,ConditionRich,2021.2.3,59.92581184685135,
5.75,6.0,41,0.0,Stimuli/Blank.png,0,0,0.0,0,4,4,4,,,,,,,,,,,,,5.753903900003934,0.0039039000039338134,None,41.39241680000123,41.39241680000123,41.39241680000123,41.39241680000123,41.39241680000123,41.39241680000123,41.39241680000123,41.39241680000123,41.39241680000123,41.39241680000123,,006,P022,2025_May_13_1740,ConditionRich,2021.2.3,59.92581184685135,
6.0,6.75,12,0.75,Stimuli/P016/sun_boffixsnbbloarty.jpg,0,0,0.0,0,5,5,5,,,,,,,,,,,,,6.004481800002395,0.004481800002395175,None,41.65932160000375,41.65932160000375,41.65932160000375,41.65932160000375,41.65932160000375,41.65932160000375,41.65932160000375,41.65932160000375,41.65932160000375,41.65932160000375,,006,P022,2025_May_13_1740,ConditionRich,2021.2.3,59.92581184685135,
6.75,7.0,41,0.0,Stimuli/Blank.png,0,0,0.0,0,6,6,6,,,,,,,,,,,,,6.771177299997362,0.021177299997361843,None,42.410626600001706,42.410626600001706,42.410626600001706,42.410626600001706,42.410626600001706,42.410626600001706,42.410626600001706,42.410626600001706,42.410626600001706,42.410626600001706,,006,P022,2025_May_13_1740,ConditionRich,2021.2.3,59.92581184685135,
7.0,7.75,12,0.75,Stimuli/P016/sun_boffixsnbbloarty.jpg,0,0,0.0,0,7,7,7,,,,,,,,,,,,,7.007712799997535,0.007712799997534603,None,42.660302199998114,42.660302199998114,42.660302199998114,42.660302199998114,42.660302199998114,42.660302199998114,42.660302199998114,42.660302199998114,42.660302199998114,42.660302199998114,,006,P022,2025_May_13_1740,ConditionRich,2021.2.3,59.92581184685135,
7.75,8.0,41,0.0,Stimuli/Blank.png,0,0,0.0,0,8,8,8,,,,,,,,,,,,,7.772408400000131,0.022408400000131223,None,43.41084630000114,43.41084630000114,43.41084630000114,43.41084630000114,43.41084630000114,43.41084630000114,43.41084630000114,43.41084630000114,43.41084630000114,43.41084630000114,,006,P022,2025_May_13_1740,ConditionRich,2021.2.3,59.92581184685135,
8.0,8.75,24,0.75,Stimuli/P016/things_bunkbed_08s.jpg,0,0,0.0,0,9,9,9,,,,,,,,,,,,,8.005620900003123,0.005620900003123097,None,43.66109570000117,43.66109570000117,43.66109570000117,43.66109570000117,43.66109570000117,43.66109570000117,43.66109570000117,43.66109570000117,43.66109570000117,43.66109570000117,,006,P022,2025_May_13_1740,ConditionRich,2021.2.3,59.92581184685135,
8.75,9.0,41,0.0,Stimuli/Blank.png,0,0,0.0,0,10,10,10,,,,,,,,,,,,,8.773462999997719,0.023462999997718725,None,44.41172789999837,44.41172789999837,44.41172789999837,44.41172789999837,44.41172789999837,44.41172789999837,44.41172789999837,44.41172789999837,44.41172789999837,44.41172789999837,,006,P022,2025_May_13_1740,ConditionRich,2021.2.3,59.92581184685135,
9.0,9.75,24,0.75,Stimuli/P016/things_bunkbed_08s.jpg,0,0,0.0,0,11,11,11,,,,,,,,,,,,,9.007144399998651,0.007144399998651352,None,44.66196389999823,44.66196389999823,44.66196389999823,44.66196389999823,44.66196389999823,44.66196389999823,44.66196389999823,44.66196389999823,44.66196389999823,44.66196389999823,,006,P022,2025_May_13_1740,ConditionRich,2021.2.3,59.92581184685135,
9.75,10.0,41,0.0,Stimuli/Blank.png,0,0,0.0,0,12,12,12,,,,,,,,,,,,,9.774230499999248,0.024230499999248423,None,45.41262689999712,45.41262689999712,45.41262689999712,45.41262689999712,45.41262689999712,45.41262689999712,45.41262689999712,45.41262689999712,45.41262689999712,45.41262689999712,,006,P022,2025_May_13_1740,ConditionRich,2021.2.3,59.92581184685135,
10.0,10.75,24,0.75,Stimuli/P016/things_bunkbed_08s.jpg,0,0,0.0,0,13,13,13,,,,,,,,,,,,,10.00818270000309,0.008182700003089849,None,45.66286899999977,45.66286899999977,45.66286899999977,45.66286899999977,45.66286899999977,45.66286899999977,45.66286899999977,45.66286899999977,45.66286899999977,45.66286899999977,,006,P022,2025_May_13_1740,ConditionRich,2021.2.3,59.92581184685135,
10.75,11.0,41,0.0,Stimuli/Blank.png,0,0,0.0,0,14,14,14,,,,,,,,,,,,,10.774659900002007,0.024659900002006907,None,46.4135488000029,46.4135488000029,46.4135488000029,46.4135488000029,46.4135488000029,46.4135488000029,46.4135488000029,46.4135488000029,46.4135488000029,46.4135488000029,,006,P022,2025_May_13_1740,ConditionRich,2021.2.3,59.92581184685135,
11.0,11.75,24,0.75,Stimuli/P016/things_bunkbed_08s.jpg,0,0,0.0,0,15,15,15,,,,,,,,,,,,,11.009080199997697,0.009080199997697491,None,46.6470341000022,46.6470341000022,46.6470341000022,46.6470341000022,46.6470341000022,46.6470341000022,46.6470341000022,46.6470341000022,46.6470341000022,46.6470341000022,,006,P022,2025_May_13_1740,ConditionRich,2021.2.3,59.92581184685135,
11.75,12.0,41,0.0,Stimuli/Blank.png,0,0,0.0,0,16,16,16,,,,,,,,,,,,,11.759810900002776,0.00981090000277618,None,47.397780400002375,47.397780400002375,47.397780400002375,47.397780400002375,47.397780400002375,47.397780400002375,47.397780400002375,47.397780400002375,47.397780400002375,47.397780400002375,,006,P022,2025_May_13_1740,ConditionRich,2021.2.3,59.92581184685135,
12.0,12.75,22,0.75,Stimuli/P016/things_baby_08s.jpg,0,0,0.0,0,17,17,17,,,,,,,,,,,,,12.009285699998145,0.009285699998144992,None,47.66470490000211,47.66470490000211,47.66470490000211,47.66470490000211,47.66470490000211,47.66470490000211,47.66470490000211,47.66470490000211,47.66470490000211,47.66470490000211,,006,P022,2025_May_13_1740,ConditionRich,2021.2.3,59.92581184685135,
12.75,13.0,41,0.0,Stimuli/Blank.png,0,0,0.0,0,18,18,18,,,,,,,,,,,,,12.777274599997327,0.02727459999732673,None,48.41528030000336,48.41528030000336,48.41528030000336,48.41528030000336,48.41528030000336,48.41528030000336,48.41528030000336,48.41528030000336,48.41528030000336,48.41528030000336,,006,P022,2025_May_13_1740,ConditionRich,2021.2.3,59.92581184685135,
13.0,13.75,22,0.75,Stimuli/P016/things_baby_08s.jpg,0,0,0.0,0,19,19,19,,,,,,,,,,,,,13.010123000000021,0.01012300000002142,None,48.66551299999992,48.66551299999992,48.66551299999992,48.66551299999992,48.66551299999992,48.66551299999992,48.66551299999992,48.66551299999992,48.66551299999992,48.66551299999992,,006,P022,2025_May_13_1740,ConditionRich,2021.2.3,59.92581184685135,
13.75,14.0,41,0.0,Stimuli/Blank.png,0,0,0.0,0,20,20,20,,,,,,,,,,,,,13.778916100003698,0.028916100003698375,None,49.432859499996994,49.432859499996994,49.432859499996994,49.432859499996994,49.432859499996994,49.432859499996994,49.432859499996994,49.432859499996994,49.432859499996994,49.432859499996994,,006,P022,2025_May_13_1740,ConditionRich,2021.2.3,59.92581184685135,
14.0,14.75,22,0.75,Stimuli/P016/things_baby_08s.jpg,0,0,0.0,0,21,21,21,,,,,,,,,,,,,14.029080899999826,0.029080899999826215,None,49.68307040000218,49.68307040000218,49.68307040000218,49.68307040000218,49.68307040000218,49.68307040000218,49.68307040000218,49.68307040000218,49.68307040000218,49.68307040000218,,006,P022,2025_May_13_1740,ConditionRich,2021.2.3,59.92581184685135,
14.75,15.0,41,0.0,Stimuli/Blank.png,0,0,0.0,0,22,22,22,,,,,,,,,,,,,14.778466600000684,0.028466600000683684,None,50.41704310000205,50.41704310000205,50.41704310000205,50.41704310000205,50.41704310000205,50.41704310000205,50.41704310000205,50.41704310000205,50.41704310000205,50.41704310000205,,006,P022,2025_May_13_1740,ConditionRich,2021.2.3,59.92581184685135,
15.0,15.75,22,0.75,Stimuli/P016/things_baby_08s.jpg,0,0,0.0,0,23,23,23,,,,,,,,,,,,,15.011779400003434,0.011779400003433693,None,50.65058890000364,50.65058890000364,50.65058890000364,50.65058890000364,50.65058890000364,50.65058890000364,50.65058890000364,50.65058890000364,50.65058890000364,50.65058890000364,,006,P022,2025_May_13_1740,ConditionRich,2021.2.3,59.92581184685135,
15.75,16.0,41,0.0,Stimuli/Blank.png,0,0,0.0,0,24,24,24,,,,,,,,,,,,,15.763092699999106,0.013092699999106117,None,51.40125219999754,51.40125219999754,51.40125219999754,51.40125219999754,51.40125219999754,51.40125219999754,51.40125219999754,51.40125219999754,51.40125219999754,51.40125219999754,,006,P022,2025_May_13_1740,ConditionRich,2021.2.3,59.92581184685135,
16.0,16.75,6,0.75,Stimuli/P016/sun_akecfasimgpbqcnt.jpg,0,0,0.0,0,25,25,25,,,,,,,,,,,,,16.01279909999721,0.01279909999720985,None,51.651465000002645,51.651465000002645,51.651465000002645,51.651465000002645,51.651465000002645,51.651465000002645,51.651465000002645,51.651465000002645,51.651465000002645,51.651465000002645,,006,P022,2025_May_13_1740,ConditionRich,2021.2.3,59.92581184685135,
16.75,17.0,41,0.0,Stimuli/Blank.png,0,0,0.0,0,26,26,26,,,,,,,,,,,,,16.763547200003813,0.013547200003813487,None,52.40213860000222,52.40213860000222,52.40213860000222,52.40213860000222,52.40213860000222,52.40213860000222,52.40213860000222,52.40213860000222,52.40213860000222,52.40213860000222,,006,P022,2025_May_13_1740,ConditionRich,2021.2.3,59.92581184685135,
17.0,17.75,6,0.75,Stimuli/P016/sun_akecfasimgpbqcnt.jpg,0,0,0.0,0,27,27,27,,,,,,,,,,,,,17.014153800002532,0.01415380000253208,None,52.652358899998944,52.652358899998944,52.652358899998944,52.652358899998944,52.652358899998944,52.652358899998944,52.652358899998944,52.652358899998944,52.652358899998944,52.652358899998944,,006,P022,2025_May_13_1740,ConditionRich,2021.2.3,59.92581184685135,
17.75,18.0,41,0.0,Stimuli/Blank.png,0,0,0.0,0,28,28,28,,,,,,,,,,,,,17.76502939999773,0.015029399997729342,None,53.4030242000008,53.4030242000008,53.4030242000008,53.4030242000008,53.4030242000008,53.4030242000008,53.4030242000008,53.4030242000008,53.4030242000008,53.4030242000008,,006,P022,2025_May_13_1740,ConditionRich,2021.2.3,59.92581184685135,
18.0,18.75,6,0.75,Stimuli/P016/sun_akecfasimgpbqcnt.jpg,0,0,0.0,0,29,29,29,,,,,,,,,,,,,18.01573500000086,0.015735000000859145,None,53.65322970000125,53.65322970000125,53.65322970000125,53.65322970000125,53.65322970000125,53.65322970000125,53.65322970000125,53.65322970000125,53.65322970000125,53.65322970000125,,006,P022,2025_May_13_1740,ConditionRich,2021.2.3,59.92581184685135,
18.75,19.0,41,0.0,Stimuli/Blank.png,0,0,0.0,0,30,30,30,,,,,,,,,,,,,18.74851409999974,-0.0014859000002616085,None,54.38722180000332,54.38722180000332,54.38722180000332,54.38722180000332,54.38722180000332,54.38722180000332,54.38722180000332,54.38722180000332,54.38722180000332,54.38722180000332,,006,P022,2025_May_13_1740,ConditionRich,2021.2.3,59.92581184685135,
19.0,19.75,6,0.75,Stimuli/P016/sun_akecfasimgpbqcnt.jpg,0,0,0.0,0,31,31,31,,,,,,,,,,,,,19.01745430000301,0.01745430000300985,None,54.6708060000019,54.6708060000019,54.6708060000019,54.6708060000019,54.6708060000019,54.6708060000019,54.6708060000019,54.6708060000019,54.6708060000019,54.6708060000019,,006,P022,2025_May_13_1740,ConditionRich,2021.2.3,59.92581184685135,
19.75,20.0,41,0.0,Stimuli/Blank.png,0,0,0.0,0,32,32,32,,,,,,,,,,,,,19.76970160000201,0.01970160000200849,None,55.421475900002406,55.421475900002406,55.421475900002406,55.421475900002406,55.421475900002406,55.421475900002406,55.421475900002406,55.421475900002406,55.421475900002406,55.421475900002406,,006,P022,2025_May_13_1740,ConditionRich,2021.2.3,59.92581184685135,
20.0,20.75,38,0.75,Stimuli/P016/things_trumpet_08s.jpg,0,0,0.0,0,33,33,33,,,,,,,,,,,,,20.01616340000328,0.016163400003279094,None,55.655020400001376,55.655020400001376,55.655020400001376,55.655020400001376,55.655020400001376,55.655020400001376,55.655020400001376,55.655020400001376,55.655020400001376,55.655020400001376,,006,P022,2025_May_13_1740,ConditionRich,2021.2.3,59.92581184685135,
20.75,21.0,41,0.0,Stimuli/Blank.png,0,0,0.0,0,34,34,34,,,,,,,,,,,,,20.750192899999092,0.00019289999909233302,None,56.38906239999778,56.38906239999778,56.38906239999778,56.38906239999778,56.38906239999778,56.38906239999778,56.38906239999778,56.38906239999778,56.38906239999778,56.38906239999778,,006,P022,2025_May_13_1740,ConditionRich,2021.2.3,59.92581184685135,
21.0,21.75,38,0.75,Stimuli/P016/things_trumpet_08s.jpg,0,0,0.0,0,35,35,35,,,,,,,,,,,,,21.001884400000563,0.0018844000005628914,None,56.65589219999674,56.65589219999674,56.65589219999674,56.65589219999674,56.65589219999674,56.65589219999674,56.65589219999674,56.65589219999674,56.65589219999674,56.65589219999674,,006,P022,2025_May_13_1740,ConditionRich,2021.2.3,59.92581184685135,
21.75,22.0,41,0.0,Stimuli/Blank.png,0,0,0.0,0,36,36,36,,,,,,,,,,,,,21.768582999997307,0.018582999997306615,None,57.40656360000139,57.40656360000139,57.40656360000139,57.40656360000139,57.40656360000139,57.40656360000139,57.40656360000139,57.40656360000139,57.40656360000139,57.40656360000139,,006,P022,2025_May_13_1740,ConditionRich,2021.2.3,59.92581184685135,
22.0,22.75,38,0.75,Stimuli/P016/things_trumpet_08s.jpg,0,0,0.0,0,37,37,37,,,,,,,,,,,,,22.002174399996875,0.002174399996874854,None,57.65678360000311,57.65678360000311,57.65678360000311,57.65678360000311,57.65678360000311,57.65678360000311,57.65678360000311,57.65678360000311,57.65678360000311,57.65678360000311,,006,P022,2025_May_13_1740,ConditionRich,2021.2.3,59.92581184685135,
22.75,23.0,41,0.0,Stimuli/Blank.png,0,0,0.0,0,38,38,38,,,,,,,,,,,,,22.768914200001745,0.018914200001745485,None,58.40744540000014,58.40744540000014,58.40744540000014,58.40744540000014,58.40744540000014,58.40744540000014,58.40744540000014,58.40744540000014,58.40744540000014,58.40744540000014,,006,P022,2025_May_13_1740,ConditionRich,2021.2.3,59.92581184685135,
23.0,23.75,38,0.75,Stimuli/P016/things_trumpet_08s.jpg,0,0,0.0,0,39,39,39,,,,,,,,,,,,,23.003618499998993,0.0036184999989927746,None,58.65766479999729,58.65766479999729,58.65766479999729,58.65766479999729,58.65766479999729,58.65766479999729,58.65766479999729,58.65766479999729,58.65766479999729,58.65766479999729,,006,P022,2025_May_13_1740,ConditionRich,2021.2.3,59.92581184685135,
23.75,24.0,41,0.0,Stimuli/Blank.png,0,0,0.0,0,40,40,40,,,,,,,,,,,,,23.77255370000057,0.022553700000571553,None,59.42500779999682,59.42500779999682,59.42500779999682,59.42500779999682,59.42500779999682,59.42500779999682,59.42500779999682,59.42500779999682,59.42500779999682,59.42500779999682,,006,P022,2025_May_13_1740,ConditionRich,2021.2.3,59.92581184685135,
24.0,24.75,7,0.75,Stimuli/P016/sun_aqdfrmtvewaapuqs.jpg,0,0,0.0,0,41,41,41,,,,,,,,,,,,,24.01984139999695,0.019841399996948894,None,59.67523519999668,59.67523519999668,59.67523519999668,59.67523519999668,59.67523519999668,59.67523519999668,59.67523519999668,59.67523519999668,59.67523519999668,59.67523519999668,,006,P022,2025_May_13_1740,ConditionRich,2021.2.3,59.92581184685135,
24.75,25.0,41,0.0,Stimuli/Blank.png,0,0,0.0,0,42,42,42,,,,,,,,,,,,,24.772612200002186,0.022612200002186,None,60.42589859999862,60.42589859999862,60.42589859999862,60.42589859999862,60.42589859999862,60.42589859999862,60.42589859999862,60.42589859999862,60.42589859999862,60.42589859999862,,006,P022,2025_May_13_1740,ConditionRich,2021.2.3,59.92581184685135,
25.0,25.75,7,0.75,Stimuli/P016/sun_aqdfrmtvewaapuqs.jpg,0,0,0.0,0,43,43,43,,,,,,,,,,,,,25.021928299996944,0.02192829999694368,None,60.67632279999816,60.67632279999816,60.67632279999816,60.67632279999816,60.67632279999816,60.67632279999816,60.67632279999816,60.67632279999816,60.67632279999816,60.67632279999816,,006,P022,2025_May_13_1740,ConditionRich,2021.2.3,59.92581184685135,
25.75,26.0,41,0.0,Stimuli/Blank.png,0,0,0.0,0,44,44,44,,,,,,,,,,,,,25.771388900000602,0.021388900000602007,None,61.41014749999886,61.41014749999886,61.41014749999886,61.41014749999886,61.41014749999886,61.41014749999886,61.41014749999886,61.41014749999886,61.41014749999886,61.41014749999886,,006,P022,2025_May_13_1740,ConditionRich,2021.2.3,59.92581184685135,
26.0,26.75,7,0.75,Stimuli/P016/sun_aqdfrmtvewaapuqs.jpg,1,0,0.75,0,45,45,45,,,,,,,,,,,,,26.004826600001252,0.004826600001251791,1,61.64362770000298,61.64362770000298,61.64362770000298,61.64362770000298,61.64362770000298,61.64362770000298,61.64362770000298,62.37764779999998,61.64362770000298,61.64362770000298,0.6438138999947114,006,P022,2025_May_13_1740,ConditionRich,2021.2.3,59.92581184685135,
26.75,27.0,41,0.0,Stimuli/Blank.png,0,0,0.0,0,46,46,46,,,,,,,,,,,,,26.758874899998773,0.00887489999877289,None,62.41098770000099,62.41098770000099,62.41098770000099,62.41098770000099,62.41098770000099,62.41098770000099,62.41098770000099,62.41098770000099,62.41098770000099,62.41098770000099,,006,P022,2025_May_13_1740,ConditionRich,2021.2.3,59.92581184685135,
27.0,27.75,7,0.75,Stimuli/P016/sun_aqdfrmtvewaapuqs.jpg,0,0,0.0,0,47,47,47,,,,,,,,,,,,,27.02383320000081,0.023833200000808574,None,62.67791330000182,62.67791330000182,62.67791330000182,62.67791330000182,62.67791330000182,62.67791330000182,62.67791330000182,62.67791330000182,62.67791330000182,62.67791330000182,,006,P022,2025_May_13_1740,ConditionRich,2021.2.3,59.92581184685135,
27.75,28.0,41,0.0,Stimuli/Blank.png,0,0,0.0,0,48,48,48,,,,,,,,,,,,,27.774228700000094,0.02422870000009425,None,63.41186939999898,63.41186939999898,63.41186939999898,63.41186939999898,63.41186939999898,63.41186939999898,63.41186939999898,63.41186939999898,63.41186939999898,63.41186939999898,,006,P022,2025_May_13_1740,ConditionRich,2021.2.3,59.92581184685135,
28.0,28.75,32,0.75,Stimuli/P016/things_pheasant_08s.jpg,0,0,0.0,0,49,49,49,,,,,,,,,,,,,28.00717219999933,0.007172199999331497,None,63.64541309999913,63.64541309999913,63.64541309999913,63.64541309999913,63.64541309999913,63.64541309999913,63.64541309999913,63.64541309999913,63.64541309999913,63.64541309999913,,006,P022,2025_May_13_1740,ConditionRich,2021.2.3,59.92581184685135,
28.75,29.0,41,0.0,Stimuli/Blank.png,0,0,0.0,0,50,50,50,,,,,,,,,,,,,28.757381800001895,0.0073818000018945895,None,64.39606970000023,64.39606970000023,64.39606970000023,64.39606970000023,64.39606970000023,64.39606970000023,64.39606970000023,64.39606970000023,64.39606970000023,64.39606970000023,,006,P022,2025_May_13_1740,ConditionRich,2021.2.3,59.92581184685135,
29.0,29.75,32,0.75,Stimuli/P016/things_pheasant_08s.jpg,0,0,0.0,0,51,51,51,,,,,,,,,,,,,29.00908950000303,0.009089500003028661,None,64.66297350000241,64.66297350000241,64.66297350000241,64.66297350000241,64.66297350000241,64.66297350000241,64.66297350000241,64.66297350000241,64.66297350000241,64.66297350000241,,006,P022,2025_May_13_1740,ConditionRich,2021.2.3,59.92581184685135,
29.75,30.0,41,0.0,Stimuli/Blank.png,0,0,0.0,0,52,52,52,,,,,,,,,,,,,29.77586799999699,0.025867999996989965,None,65.4136479000008,65.4136479000008,65.4136479000008,65.4136479000008,65.4136479000008,65.4136479000008,65.4136479000008,65.4136479000008,65.4136479000008,65.4136479000008,,006,P022,2025_May_13_1740,ConditionRich,2021.2.3,59.92581184685135,
30.0,30.75,32,0.75,Stimuli/P016/things_pheasant_08s.jpg,0,0,0.0,0,53,53,53,,,,,,,,,,,,,30.00855710000178,0.008557100001780782,None,65.64717570000357,65.64717570000357,65.64717570000357,65.64717570000357,65.64717570000357,65.64717570000357,65.64717570000357,65.64717570000357,65.64717570000357,65.64717570000357,,006,P022,2025_May_13_1740,ConditionRich,2021.2.3,59.92581184685135,
30.75,31.0,41,0.0,Stimuli/Blank.png,0,0,0.0,0,54,54,54,,,,,,,,,,,,,30.759165700001176,0.009165700001176447,None,66.39787410000281,66.39787410000281,66.39787410000281,66.39787410000281,66.39787410000281,66.39787410000281,66.39787410000281,66.39787410000281,66.39787410000281,66.39787410000281,,006,P022,2025_May_13_1740,ConditionRich,2021.2.3,59.92581184685135,
31.0,31.75,32,0.75,Stimuli/P016/things_pheasant_08s.jpg,0,0,0.0,0,55,55,55,,,,,,,,,,,,,31.009810700001253,0.00981070000125328,None,66.66474620000372,66.66474620000372,66.66474620000372,66.66474620000372,66.66474620000372,66.66474620000372,66.66474620000372,66.66474620000372,66.66474620000372,66.66474620000372,,006,P022,2025_May_13_1740,ConditionRich,2021.2.3,59.92581184685135,
31.75,32.0,41,0.0,Stimuli/Blank.png,0,0,0.0,0,56,56,56,,,,,,,,,,,,,31.777198900002986,0.027198900002986193,None,67.4154039999994,67.4154039999994,67.4154039999994,67.4154039999994,67.4154039999994,67.4154039999994,67.4154039999994,67.4154039999994,67.4154039999994,67.4154039999994,,006,P022,2025_May_13_1740,ConditionRich,2021.2.3,59.92581184685135,
32.0,32.75,3,0.75,Stimuli/P016/sun_aiogwnavezqxkzfg.jpg,0,0,0.0,0,57,57,57,,,,,,,,,,,,,32.010675400000764,0.010675400000764057,None,67.64893489999668,67.64893489999668,67.64893489999668,67.64893489999668,67.64893489999668,67.64893489999668,67.64893489999668,67.64893489999668,67.64893489999668,67.64893489999668,,006,P022,2025_May_13_1740,ConditionRich,2021.2.3,59.92581184685135,
32.75,33.0,41,0.0,Stimuli/Blank.png,0,0,0.0,0,58,58,58,,,,,,,,,,,,,32.76343669999915,0.013436699999147095,None,68.41630040000018,68.41630040000018,68.41630040000018,68.41630040000018,68.41630040000018,68.41630040000018,68.41630040000018,68.41630040000018,68.41630040000018,68.41630040000018,,006,P022,2025_May_13_1740,ConditionRich,2021.2.3,59.92581184685135,
33.0,33.75,3,0.75,Stimuli/P016/sun_aiogwnavezqxkzfg.jpg,0,0,0.0,0,59,59,59,,,,,,,,,,,,,33.02987669999857,0.029876699998567346,None,68.68318659999932,68.68318659999932,68.68318659999932,68.68318659999932,68.68318659999932,68.68318659999932,68.68318659999932,68.68318659999932,68.68318659999932,68.68318659999932,,006,P022,2025_May_13_1740,ConditionRich,2021.2.3,59.92581184685135,
33.75,34.0,41,0.0,Stimuli/Blank.png,0,0,0.0,0,60,60,60,,,,,,,,,,,,,33.77860650000366,0.028606500003661495,None,69.41717459999927,69.41717459999927,69.41717459999927,69.41717459999927,69.41717459999927,69.41717459999927,69.41717459999927,69.41717459999927,69.41717459999927,69.41717459999927,,006,P022,2025_May_13_1740,ConditionRich,2021.2.3,59.92581184685135,
34.0,34.75,3,0.75,Stimuli/P016/sun_aiogwnavezqxkzfg.jpg,0,0,0.0,0,61,61,61,,,,,,,,,,,,,34.01205800000025,0.012058000000251923,None,69.65070649999689,69.65070649999689,69.65070649999689,69.65070649999689,69.65070649999689,69.65070649999689,69.65070649999689,69.65070649999689,69.65070649999689,69.65070649999689,,006,P022,2025_May_13_1740,ConditionRich,2021.2.3,59.92581184685135,
34.75,35.0,41,0.0,Stimuli/Blank.png,0,0,0.0,0,62,62,62,,,,,,,,,,,,,34.76333519999753,0.013335199997527525,None,70.4013827000017,70.4013827000017,70.4013827000017,70.4013827000017,70.4013827000017,70.4013827000017,70.4013827000017,70.4013827000017,70.4013827000017,70.4013827000017,,006,P022,2025_May_13_1740,ConditionRich,2021.2.3,59.92581184685135,
35.0,35.75,3,0.75,Stimuli/P016/sun_aiogwnavezqxkzfg.jpg,0,0,0.0,0,63,63,63,,,,,,,,,,,,,35.013478300003044,0.013478300003043842,None,70.65160340000148,70.65160340000148,70.65160340000148,70.65160340000148,70.65160340000148,70.65160340000148,70.65160340000148,70.65160340000148,70.65160340000148,70.65160340000148,,006,P022,2025_May_13_1740,ConditionRich,2021.2.3,59.92581184685135,
35.75,36.0,41,0.0,Stimuli/Blank.png,0,0,0.0,0,64,64,64,,,,,,,,,,,,,35.76358910000272,0.013589100002718624,None,71.40226290000282,71.40226290000282,71.40226290000282,71.40226290000282,71.40226290000282,71.40226290000282,71.40226290000282,71.40226290000282,71.40226290000282,71.40226290000282,,006,P022,2025_May_13_1740,ConditionRich,2021.2.3,59.92581184685135,
36.0,36.75,4,0.75,Stimuli/P016/sun_aiwuqxdqzftsfyeg.jpg,1,0,0.75,0,65,65,65,,,,,,,,,,,,,36.01413319999847,0.014133199998468626,1,71.6524933000037,71.6524933000037,71.6524933000037,71.6524933000037,71.6524933000037,71.6524933000037,71.6524933000037,72.38646609999705,71.6524933000037,71.6524933000037,0.5750991000022623,006,P022,2025_May_13_1740,ConditionRich,2021.2.3,59.92581184685135,
36.75,37.0,41,0.0,Stimuli/Blank.png,0,0,0.0,0,66,66,66,,,,,,,,,,,,,36.76499109999713,0.014991099997132551,None,72.40315250000276,72.40315250000276,72.40315250000276,72.40315250000276,72.40315250000276,72.40315250000276,72.40315250000276,72.40315250000276,72.40315250000276,72.40315250000276,,006,P022,2025_May_13_1740,ConditionRich,2021.2.3,59.92581184685135,
37.0,37.75,4,0.75,Stimuli/P016/sun_aiwuqxdqzftsfyeg.jpg,0,0,0.0,0,67,67,67,,,,,,,,,,,,,37.01756600000226,0.017566000002261717,None,72.67005790000258,72.67005790000258,72.67005790000258,72.67005790000258,72.67005790000258,72.67005790000258,72.67005790000258,72.67005790000258,72.67005790000258,72.67005790000258,,006,P022,2025_May_13_1740,ConditionRich,2021.2.3,59.92581184685135,
37.75,38.0,41,0.0,Stimuli/Blank.png,0,0,0.0,0,68,68,68,,,,,,,,,,,,,37.76629210000101,0.016292100001010112,None,73.40406210000219,73.40406210000219,73.40406210000219,73.40406210000219,73.40406210000219,73.40406210000219,73.40406210000219,73.40406210000219,73.40406210000219,73.40406210000219,,006,P022,2025_May_13_1740,ConditionRich,2021.2.3,59.92581184685135,
38.0,38.75,4,0.75,Stimuli/P016/sun_aiwuqxdqzftsfyeg.jpg,0,0,0.0,0,69,69,69,,,,,,,,,,,,,37.99948359999689,-0.0005164000031072646,None,73.65425720000349,73.65425720000349,73.65425720000349,73.65425720000349,73.65425720000349,73.65425720000349,73.65425720000349,73.65425720000349,73.65425720000349,73.65425720000349,,006,P022,2025_May_13_1740,ConditionRich,2021.2.3,59.92581184685135,
38.75,39.0,41,0.0,Stimuli/Blank.png,0,0,0.0,0,70,70,70,,,,,,,,,,,,,38.76760540000396,0.017605400003958493,None,74.40493799999967,74.40493799999967,74.40493799999967,74.40493799999967,74.40493799999967,74.40493799999967,74.40493799999967,74.40493799999967,74.40493799999967,74.40493799999967,,006,P022,2025_May_13_1740,ConditionRich,2021.2.3,59.92581184685135,
39.0,39.75,4,0.75,Stimuli/P016/sun_aiwuqxdqzftsfyeg.jpg,0,0,0.0,0,71,71,71,,,,,,,,,,,,,39.002761399999144,0.002761399999144487,None,74.65513900000224,74.65513900000224,74.65513900000224,74.65513900000224,74.65513900000224,74.65513900000224,74.65513900000224,74.65513900000224,74.65513900000224,74.65513900000224,,006,P022,2025_May_13_1740,ConditionRich,2021.2.3,59.92581184685135,
39.75,40.0,41,0.0,Stimuli/Blank.png,0,0,0.0,0,72,72,72,,,,,,,,,,,,,39.76779019999958,0.01779019999958109,None,75.40580729999783,75.40580729999783,75.40580729999783,75.40580729999783,75.40580729999783,75.40580729999783,75.40580729999783,75.40580729999783,75.40580729999783,75.40580729999783,,006,P022,2025_May_13_1740,ConditionRich,2021.2.3,59.92581184685135,
40.0,40.75,30,0.75,Stimuli/P016/things_ottoman_08s.jpg,0,0,0.0,0,73,73,73,,,,,,,,,,,,,40.00186730000132,0.0018673000013222918,None,75.65602950000175,75.65602950000175,75.65602950000175,75.65602950000175,75.65602950000175,75.65602950000175,75.65602950000175,75.65602950000175,75.65602950000175,75.65602950000175,,006,P022,2025_May_13_1740,ConditionRich,2021.2.3,59.92581184685135,
40.75,41.0,41,0.0,Stimuli/Blank.png,0,0,0.0,0,74,74,74,,,,,,,,,,,,,40.76875360000122,0.01875360000121873,None,76.40670729999692,76.40670729999692,76.40670729999692,76.40670729999692,76.40670729999692,76.40670729999692,76.40670729999692,76.40670729999692,76.40670729999692,76.40670729999692,,006,P022,2025_May_13_1740,ConditionRich,2021.2.3,59.92581184685135,
41.0,41.75,30,0.75,Stimuli/P016/things_ottoman_08s.jpg,0,0,0.0,0,75,75,75,,,,,,,,,,,,,41.00132200000371,0.0013220000037108548,None,76.64023299999826,76.64023299999826,76.64023299999826,76.64023299999826,76.64023299999826,76.64023299999826,76.64023299999826,76.64023299999826,76.64023299999826,76.64023299999826,,006,P022,2025_May_13_1740,ConditionRich,2021.2.3,59.92581184685135,
41.75,42.0,41,0.0,Stimuli/Blank.png,0,0,0.0,0,76,76,76,,,,,,,,,,,,,41.75329090000014,0.0032909000001382083,None,77.39088690000062,77.39088690000062,77.39088690000062,77.39088690000062,77.39088690000062,77.39088690000062,77.39088690000062,77.39088690000062,77.39088690000062,77.39088690000062,,006,P022,2025_May_13_1740,ConditionRich,2021.2.3,59.92581184685135,
42.0,42.75,30,0.75,Stimuli/P016/things_ottoman_08s.jpg,0,0,0.0,0,77,77,77,,,,,,,,,,,,,42.00226400000247,0.002264000002469402,None,77.64111569999659,77.64111569999659,77.64111569999659,77.64111569999659,77.64111569999659,77.64111569999659,77.64111569999659,77.64111569999659,77.64111569999659,77.64111569999659,,006,P022,2025_May_13_1740,ConditionRich,2021.2.3,59.92581184685135,
42.75,43.0,41,0.0,Stimuli/Blank.png,0,0,0.0,0,78,78,78,,,,,,,,,,,,,42.75378620000265,0.0037862000026507303,None,78.39178710000124,78.39178710000124,78.39178710000124,78.39178710000124,78.39178710000124,78.39178710000124,78.39178710000124,78.39178710000124,78.39178710000124,78.39178710000124,,006,P022,2025_May_13_1740,ConditionRich,2021.2.3,59.92581184685135,
43.0,43.75,30,0.75,Stimuli/P016/things_ottoman_08s.jpg,0,0,0.0,0,79,79,79,,,,,,,,,,,,,43.003425199996855,0.0034251999968546443,None,78.64200649999839,78.64200649999839,78.64200649999839,78.64200649999839,78.64200649999839,78.64200649999839,78.64200649999839,78.64200649999839,78.64200649999839,78.64200649999839,,006,P022,2025_May_13_1740,ConditionRich,2021.2.3,59.92581184685135,
43.75,44.0,41,0.0,Stimuli/Blank.png,0,0,0.0,0,80,80,80,,,,,,,,,,,,,43.75443919999816,0.004439199998159893,None,79.39266289999796,79.39266289999796,79.39266289999796,79.39266289999796,79.39266289999796,79.39266289999796,79.39266289999796,79.39266289999796,79.39266289999796,79.39266289999796,,006,P022,2025_May_13_1740,ConditionRich,2021.2.3,59.92581184685135,
44.0,44.75,35,0.75,Stimuli/P016/things_squid_08s.jpg,0,0,0.0,0,81,81,81,,,,,,,,,,,,,44.00475610000285,0.0047561000028508715,None,79.65956290000031,79.65956290000031,79.65956290000031,79.65956290000031,79.65956290000031,79.65956290000031,79.65956290000031,79.65956290000031,79.65956290000031,79.65956290000031,,006,P022,2025_May_13_1740,ConditionRich,2021.2.3,59.92581184685135,
44.75,45.0,41,0.0,Stimuli/Blank.png,0,0,0.0,0,82,82,82,,,,,,,,,,,,,44.77163660000224,0.021636600002238993,None,80.4102184000003,80.4102184000003,80.4102184000003,80.4102184000003,80.4102184000003,80.4102184000003,80.4102184000003,80.4102184000003,80.4102184000003,80.4102184000003,,006,P022,2025_May_13_1740,ConditionRich,2021.2.3,59.92581184685135,
45.0,45.75,35,0.75,Stimuli/P016/things_squid_08s.jpg,0,0,0.0,0,83,83,83,,,,,,,,,,,,,45.00750839999819,0.0075083999981870875,None,80.66044729999703,80.66044729999703,80.66044729999703,80.66044729999703,80.66044729999703,80.66044729999703,80.66044729999703,80.66044729999703,80.66044729999703,80.66044729999703,,006,P022,2025_May_13_1740,ConditionRich,2021.2.3,59.92581184685135,
45.75,46.0,41,0.0,Stimuli/Blank.png,0,0,0.0,0,84,84,84,,,,,,,,,,,,,45.773874099999375,0.023874099999375176,None,81.41111259999889,81.41111259999889,81.41111259999889,81.41111259999889,81.41111259999889,81.41111259999889,81.41111259999889,81.41111259999889,81.41111259999889,81.41111259999889,,006,P022,2025_May_13_1740,ConditionRich,2021.2.3,59.92581184685135,
46.0,46.75,35,0.75,Stimuli/P016/things_squid_08s.jpg,0,0,0.0,0,85,85,85,,,,,,,,,,,,,46.00592560000223,0.005925600002228748,None,81.64465159999963,81.64465159999963,81.64465159999963,81.64465159999963,81.64465159999963,81.64465159999963,81.64465159999963,81.64465159999963,81.64465159999963,81.64465159999963,,006,P022,2025_May_13_1740,ConditionRich,2021.2.3,59.92581184685135,
46.75,47.0,41,0.0,Stimuli/Blank.png,0,0,0.0,0,86,86,86,,,,,,,,,,,,,46.758252300001914,0.008252300001913682,None,82.3953263000003,82.3953263000003,82.3953263000003,82.3953263000003,82.3953263000003,82.3953263000003,82.3953263000003,82.3953263000003,82.3953263000003,82.3953263000003,,006,P022,2025_May_13_1740,ConditionRich,2021.2.3,59.92581184685135,
47.0,47.75,35,0.75,Stimuli/P016/things_squid_08s.jpg,0,0,0.0,0,87,87,87,,,,,,,,,,,,,47.008034400001634,0.008034400001633912,None,82.66222199999902,82.66222199999902,82.66222199999902,82.66222199999902,82.66222199999902,82.66222199999902,82.66222199999902,82.66222199999902,82.66222199999902,82.66222199999902,,006,P022,2025_May_13_1740,ConditionRich,2021.2.3,59.92581184685135,
47.75,48.0,41,0.0,Stimuli/Blank.png,0,0,0.0,0,88,88,88,,,,,,,,,,,,,47.77413749999687,0.024137499996868428,None,83.41288460000214,83.41288460000214,83.41288460000214,83.41288460000214,83.41288460000214,83.41288460000214,83.41288460000214,83.41288460000214,83.41288460000214,83.41288460000214,,006,P022,2025_May_13_1740,ConditionRich,2021.2.3,59.92581184685135,
48.0,48.75,36,0.75,Stimuli/P016/things_streetlight_08s.jpg,0,0,0.0,0,89,89,89,,,,,,,,,,,,,48.00817929999903,0.008179299999028444,None,83.64641480000137,83.64641480000137,83.64641480000137,83.64641480000137,83.64641480000137,83.64641480000137,83.64641480000137,83.64641480000137,83.64641480000137,83.64641480000137,,006,P022,2025_May_13_1740,ConditionRich,2021.2.3,59.92581184685135,
48.75,49.0,41,0.0,Stimuli/Blank.png,0,0,0.0,0,90,90,90,,,,,,,,,,,,,48.75843270000041,0.008432700000412297,None,84.39710139999806,84.39710139999806,84.39710139999806,84.39710139999806,84.39710139999806,84.39710139999806,84.39710139999806,84.39710139999806,84.39710139999806,84.39710139999806,,006,P022,2025_May_13_1740,ConditionRich,2021.2.3,59.92581184685135,
49.0,49.75,36,0.75,Stimuli/P016/things_streetlight_08s.jpg,0,0,0.0,0,91,91,91,,,,,,,,,,,,,49.00871180000104,0.008711800001037773,None,84.6472986000008,84.6472986000008,84.6472986000008,84.6472986000008,84.6472986000008,84.6472986000008,84.6472986000008,84.6472986000008,84.6472986000008,84.6472986000008,,006,P022,2025_May_13_1740,ConditionRich,2021.2.3,59.92581184685135,
49.75,50.0,41,0.0,Stimuli/Blank.png,0,0,0.0,0,92,92,92,,,,,,,,,,,,,49.760981600004015,0.01098160000401549,None,85.39798270000028,85.39798270000028,85.39798270000028,85.39798270000028,85.39798270000028,85.39798270000028,85.39798270000028,85.39798270000028,85.39798270000028,85.39798270000028,,006,P022,2025_May_13_1740,ConditionRich,2021.2.3,59.92581184685135,
50.0,50.75,36,0.75,Stimuli/P016/things_streetlight_08s.jpg,0,0,0.0,0,93,93,93,,,,,,,,,,,,,50.00940999999875,0.009409999998752028,None,85.64819259999786,85.64819259999786,85.64819259999786,85.64819259999786,85.64819259999786,85.64819259999786,85.64819259999786,85.64819259999786,85.64819259999786,85.64819259999786,,006,P022,2025_May_13_1740,ConditionRich,2021.2.3,59.92581184685135,
50.75,51.0,41,0.0,Stimuli/Blank.png,0,0,0.0,0,94,94,94,,,,,,,,,,,,,50.76091730000189,0.010917300001892727,None,86.3988595999981,86.3988595999981,86.3988595999981,86.3988595999981,86.3988595999981,86.3988595999981,86.3988595999981,86.3988595999981,86.3988595999981,86.3988595999981,,006,P022,2025_May_13_1740,ConditionRich,2021.2.3,59.92581184685135,
51.0,51.75,36,0.75,Stimuli/P016/things_streetlight_08s.jpg,1,0,0.75,0,95,95,95,,,,,,,,,,,,,51.01239450000139,0.012394500001391862,1,86.66576930000156,86.66576930000156,86.66576930000156,86.66576930000156,86.66576930000156,86.66576930000156,86.66576930000156,87.39976200000092,86.66576930000156,86.66576930000156,0.5054732999997213,006,P022,2025_May_13_1740,ConditionRich,2021.2.3,59.92581184685135,
51.75,52.0,41,0.0,Stimuli/Blank.png,0,0,0.0,0,96,96,96,,,,,,,,,,,,,51.778360299998894,0.028360299998894334,None,87.41642380000121,87.41642380000121,87.41642380000121,87.41642380000121,87.41642380000121,87.41642380000121,87.41642380000121,87.41642380000121,87.41642380000121,87.41642380000121,,006,P022,2025_May_13_1740,ConditionRich,2021.2.3,59.92581184685135,
52.0,52.75,33,0.75,Stimuli/P016/things_raccoon_08n.jpg,0,0,0.0,0,97,97,97,,,,,,,,,,,,,52.011911900000996,0.011911900000995956,None,87.66665220000141,87.66665220000141,87.66665220000141,87.66665220000141,87.66665220000141,87.66665220000141,87.66665220000141,87.66665220000141,87.66665220000141,87.66665220000141,,006,P022,2025_May_13_1740,ConditionRich,2021.2.3,59.92581184685135,
52.75,53.0,41,0.0,Stimuli/Blank.png,0,0,0.0,0,98,98,98,,,,,,,,,,,,,52.778857600002084,0.028857600002083927,None,88.41731609999988,88.41731609999988,88.41731609999988,88.41731609999988,88.41731609999988,88.41731609999988,88.41731609999988,88.41731609999988,88.41731609999988,88.41731609999988,,006,P022,2025_May_13_1740,ConditionRich,2021.2.3,59.92581184685135,
53.0,53.75,33,0.75,Stimuli/P016/things_raccoon_08n.jpg,0,0,0.0,0,99,99,99,,,,,,,,,,,,,53.01323440000124,0.0132344000012381,None,88.650845199998,88.650845199998,88.650845199998,88.650845199998,88.650845199998,88.650845199998,88.650845199998,88.650845199998,88.650845199998,88.650845199998,,006,P022,2025_May_13_1740,ConditionRich,2021.2.3,59.92581184685135,
53.75,54.0,41,0.0,Stimuli/Blank.png,0,0,0.0,0,100,100,100,,,,,,,,,,,,,53.764126699999906,0.014126699999906123,None,89.40151280000282,89.40151280000282,89.40151280000282,89.40151280000282,89.40151280000282,89.40151280000282,89.40151280000282,89.40151280000282,89.40151280000282,89.40151280000282,,006,P022,2025_May_13_1740,ConditionRich,2021.2.3,59.92581184685135,
54.0,54.75,33,0.75,Stimuli/P016/things_raccoon_08n.jpg,0,0,0.0,0,101,101,101,,,,,,,,,,,,,54.01305310000316,0.013053100003162399,None,89.65173620000132,89.65173620000132,89.65173620000132,89.65173620000132,89.65173620000132,89.65173620000132,89.65173620000132,89.65173620000132,89.65173620000132,89.65173620000132,,006,P022,2025_May_13_1740,ConditionRich,2021.2.3,59.92581184685135,
54.75,55.0,41,0.0,Stimuli/Blank.png,0,0,0.0,0,102,102,102,,,,,,,,,,,,,54.764508000000205,0.014508000000205357,None,90.4023892999976,90.4023892999976,90.4023892999976,90.4023892999976,90.4023892999976,90.4023892999976,90.4023892999976,90.4023892999976,90.4023892999976,90.4023892999976,,006,P022,2025_May_13_1740,ConditionRich,2021.2.3,59.92581184685135,
55.0,55.75,33,0.75,Stimuli/P016/things_raccoon_08n.jpg,0,0,0.0,0,103,103,103,,,,,,,,,,,,,55.014215299997886,0.014215299997886177,None,90.65262269999948,90.65262269999948,90.65262269999948,90.65262269999948,90.65262269999948,90.65262269999948,90.65262269999948,90.65262269999948,90.65262269999948,90.65262269999948,,006,P022,2025_May_13_1740,ConditionRich,2021.2.3,59.92581184685135,
55.75,56.0,41,0.0,Stimuli/Blank.png,0,0,0.0,0,104,104,104,,,,,,,,,,,,,55.76752159999887,0.01752159999887226,None,91.41996060000383,91.41996060000383,91.41996060000383,91.41996060000383,91.41996060000383,91.41996060000383,91.41996060000383,91.41996060000383,91.41996060000383,91.41996060000383,,006,P022,2025_May_13_1740,ConditionRich,2021.2.3,59.92581184685135,
56.0,56.75,21,0.75,Stimuli/P016/things_arch_08s.jpg,0,0,0.0,0,105,105,105,,,,,,,,,,,,,56.015636500000255,0.015636500000255182,None,91.67019540000183,91.67019540000183,91.67019540000183,91.67019540000183,91.67019540000183,91.67019540000183,91.67019540000183,91.67019540000183,91.67019540000183,91.67019540000183,,006,P022,2025_May_13_1740,ConditionRich,2021.2.3,59.92581184685135,
56.75,57.0,41,0.0,Stimuli/Blank.png,0,0,0.0,0,106,106,106,,,,,,,,,,,,,56.766727100002754,0.016727100002754014,None,92.40417609999713,92.40417609999713,92.40417609999713,92.40417609999713,92.40417609999713,92.40417609999713,92.40417609999713,92.40417609999713,92.40417609999713,92.40417609999713,,006,P022,2025_May_13_1740,ConditionRich,2021.2.3,59.92581184685135,
57.0,57.75,21,0.75,Stimuli/P016/things_arch_08s.jpg,0,0,0.0,0,107,107,107,,,,,,,,,,,,,56.99959220000164,-0.00040779999835649505,None,92.63769660000253,92.63769660000253,92.63769660000253,92.63769660000253,92.63769660000253,92.63769660000253,92.63769660000253,92.63769660000253,92.63769660000253,92.63769660000253,,006,P022,2025_May_13_1740,ConditionRich,2021.2.3,59.92581184685135,
57.75,58.0,41,0.0,Stimuli/Blank.png,0,0,0.0,0,108,108,108,,,,,,,,,,,,,57.75000539999746,5.399997462518513e-06,None,93.3883732999966,93.3883732999966,93.3883732999966,93.3883732999966,93.3883732999966,93.3883732999966,93.3883732999966,93.3883732999966,93.3883732999966,93.3883732999966,,006,P022,2025_May_13_1740,ConditionRich,2021.2.3,59.92581184685135,
58.0,58.75,21,0.75,Stimuli/P016/things_arch_08s.jpg,0,0,0.0,0,109,109,109,,,,,,,,,,,,,58.00020290000248,0.00020290000247769058,None,93.63858839999739,93.63858839999739,93.63858839999739,93.63858839999739,93.63858839999739,93.63858839999739,93.63858839999739,93.63858839999739,93.63858839999739,93.63858839999739,,006,P022,2025_May_13_1740,ConditionRich,2021.2.3,59.92581184685135,
58.75,59.0,41,0.0,Stimuli/Blank.png,0,0,0.0,0,110,110,110,,,,,,,,,,,,,58.7526532999982,0.002653299998200964,None,94.40594479999709,94.40594479999709,94.40594479999709,94.40594479999709,94.40594479999709,94.40594479999709,94.40594479999709,94.40594479999709,94.40594479999709,94.40594479999709,,006,P022,2025_May_13_1740,ConditionRich,2021.2.3,59.92581184685135,
59.0,59.75,21,0.75,Stimuli/P016/things_arch_08s.jpg,0,0,0.0,0,111,111,111,,,,,,,,,,,,,59.01827680000133,0.01827680000133114,None,94.65616169999703,94.65616169999703,94.65616169999703,94.65616169999703,94.65616169999703,94.65616169999703,94.65616169999703,94.65616169999703,94.65616169999703,94.65616169999703,,006,P022,2025_May_13_1740,ConditionRich,2021.2.3,59.92581184685135,
59.75,60.0,41,0.0,Stimuli/Blank.png,0,0,0.0,0,112,112,112,,,,,,,,,,,,,59.752457499998854,0.0024574999988544732,None,95.39013720000366,95.39013720000366,95.39013720000366,95.39013720000366,95.39013720000366,95.39013720000366,95.39013720000366,95.39013720000366,95.39013720000366,95.39013720000366,,006,P022,2025_May_13_1740,ConditionRich,2021.2.3,59.92581184685135,
60.0,60.75,17,0.75,Stimuli/P016/sun_bxhbltvqnpaciuzt.jpg,0,0,0.0,0,113,113,113,,,,,,,,,,,,,60.002139900003385,0.0021399000033852644,None,95.64035129999684,95.64035129999684,95.64035129999684,95.64035129999684,95.64035129999684,95.64035129999684,95.64035129999684,95.64035129999684,95.64035129999684,95.64035129999684,,006,P022,2025_May_13_1740,ConditionRich,2021.2.3,59.92581184685135,
60.75,61.0,41,0.0,Stimuli/Blank.png,0,0,0.0,0,114,114,114,,,,,,,,,,,,,60.75286649999907,0.0028664999990724027,None,96.3910235000003,96.3910235000003,96.3910235000003,96.3910235000003,96.3910235000003,96.3910235000003,96.3910235000003,96.3910235000003,96.3910235000003,96.3910235000003,,006,P022,2025_May_13_1740,ConditionRich,2021.2.3,59.92581184685135,
61.0,61.75,17,0.75,Stimuli/P016/sun_bxhbltvqnpaciuzt.jpg,0,0,0.0,0,115,115,115,,,,,,,,,,,,,61.003010799999174,0.0030107999991741963,None,96.64121680000244,96.64121680000244,96.64121680000244,96.64121680000244,96.64121680000244,96.64121680000244,96.64121680000244,96.64121680000244,96.64121680000244,96.64121680000244,,006,P022,2025_May_13_1740,ConditionRich,2021.2.3,59.92581184685135,
61.75,62.0,41,0.0,Stimuli/Blank.png,0,0,0.0,0,116,116,116,,,,,,,,,,,,,61.7539797999998,0.003979799999797251,None,97.39191690000007,97.39191690000007,97.39191690000007,97.39191690000007,97.39191690000007,97.39191690000007,97.39191690000007,97.39191690000007,97.39191690000007,97.39191690000007,,006,P022,2025_May_13_1740,ConditionRich,2021.2.3,59.92581184685135,
62.0,62.75,17,0.75,Stimuli/P016/sun_bxhbltvqnpaciuzt.jpg,1,0,0.75,0,117,117,117,,,,,,,,,,,,,62.00398139999743,0.003981399997428525,1,97.64212950000365,97.64212950000365,97.64212950000365,97.64212950000365,97.64212950000365,97.64212950000365,97.64212950000365,98.37610590000259,97.64212950000365,97.64212950000365,0.47923399999854155,006,P022,2025_May_13_1740,ConditionRich,2021.2.3,59.92581184685135,
62.75,63.0,41,0.0,Stimuli/Blank.png,0,0,0.0,0,118,118,118,,,,,,,,,,,,,62.754749300002004,0.00474930000200402,None,98.3927979,98.3927979,98.3927979,98.3927979,98.3927979,98.3927979,98.3927979,98.3927979,98.3927979,98.3927979,,006,P022,2025_May_13_1740,ConditionRich,2021.2.3,59.92581184685135,
63.0,63.75,17,0.75,Stimuli/P016/sun_bxhbltvqnpaciuzt.jpg,0,0,0.0,0,119,119,119,,,,,,,,,,,,,63.004207199999655,0.004207199999655131,None,98.64301040000282,98.64301040000282,98.64301040000282,98.64301040000282,98.64301040000282,98.64301040000282,98.64301040000282,98.64301040000282,98.64301040000282,98.64301040000282,,006,P022,2025_May_13_1740,ConditionRich,2021.2.3,59.92581184685135,
63.75,64.0,41,0.0,Stimuli/Blank.png,0,0,0.0,0,120,120,120,,,,,,,,,,,,,63.75502080000297,0.0050208000029670075,None,99.39374990000215,99.39374990000215,99.39374990000215,99.39374990000215,99.39374990000215,99.39374990000215,99.39374990000215,99.39374990000215,99.39374990000215,99.39374990000215,,006,P022,2025_May_13_1740,ConditionRich,2021.2.3,59.92581184685135,
64.0,64.75,28,0.75,Stimuli/P016/things_latte_08s.jpg,0,0,0.0,0,121,121,121,,,,,,,,,,,,,64.005161400004,0.005161400003999006,None,99.66057410000212,99.66057410000212,99.66057410000212,99.66057410000212,99.66057410000212,99.66057410000212,99.66057410000212,99.66057410000212,99.66057410000212,99.66057410000212,,006,P022,2025_May_13_1740,ConditionRich,2021.2.3,59.92581184685135,
64.75,65.0,41,0.0,Stimuli/Blank.png,0,0,0.0,0,122,122,122,,,,,,,,,,,,,64.77406640000117,0.02406640000117477,None,100.41124839999975,100.41124839999975,100.41124839999975,100.41124839999975,100.41124839999975,100.41124839999975,100.41124839999975,100.41124839999975,100.41124839999975,100.41124839999975,,006,P022,2025_May_13_1740,ConditionRich,2021.2.3,59.92581184685135,
65.0,65.75,28,0.75,Stimuli/P016/things_latte_08s.jpg,0,0,0.0,0,123,123,123,,,,,,,,,,,,,65.00854590000381,0.008545900003809948,None,100.6614619000029,100.6614619000029,100.6614619000029,100.6614619000029,100.6614619000029,100.6614619000029,100.6614619000029,100.6614619000029,100.6614619000029,100.6614619000029,,006,P022,2025_May_13_1740,ConditionRich,2021.2.3,59.92581184685135,
65.75,66.0,41,0.0,Stimuli/Blank.png,0,0,0.0,0,124,124,124,,,,,,,,,,,,,65.7740294000032,0.024029400003200863,None,101.41213889999926,101.41213889999926,101.41213889999926,101.41213889999926,101.41213889999926,101.41213889999926,101.41213889999926,101.41213889999926,101.41213889999926,101.41213889999926,,006,P022,2025_May_13_1740,ConditionRich,2021.2.3,59.92581184685135,
66.0,66.75,28,0.75,Stimuli/P016/things_latte_08s.jpg,0,0,0.0,0,125,125,125,,,,,,,,,,,,,66.00774220000312,0.0077422000031219795,None,101.64567559999705,101.64567559999705,101.64567559999705,101.64567559999705,101.64567559999705,101.64567559999705,101.64567559999705,101.64567559999705,101.64567559999705,101.64567559999705,,006,P022,2025_May_13_1740,ConditionRich,2021.2.3,59.92581184685135,
66.75,67.0,41,0.0,Stimuli/Blank.png,0,0,0.0,0,126,126,126,,,,,,,,,,,,,66.75817829999869,0.008178299998689909,None,102.39633460000186,102.39633460000186,102.39633460000186,102.39633460000186,102.39633460000186,102.39633460000186,102.39633460000186,102.39633460000186,102.39633460000186,102.39633460000186,,006,P022,2025_May_13_1740,ConditionRich,2021.2.3,59.92581184685135,
67.0,67.75,28,0.75,Stimuli/P016/things_latte_08s.jpg,0,0,0.0,0,127,127,127,,,,,,,,,,,,,67.00784279999789,0.007842799997888505,None,102.64656939999986,102.64656939999986,102.64656939999986,102.64656939999986,102.64656939999986,102.64656939999986,102.64656939999986,102.64656939999986,102.64656939999986,102.64656939999986,,006,P022,2025_May_13_1740,ConditionRich,2021.2.3,59.92581184685135,
67.75,68.0,41,0.0,Stimuli/Blank.png,0,0,0.0,0,128,128,128,,,,,,,,,,,,,67.75931600000331,0.009316000003309455,None,103.39721999999892,103.39721999999892,103.39721999999892,103.39721999999892,103.39721999999892,103.39721999999892,103.39721999999892,103.39721999999892,103.39721999999892,103.39721999999892,,006,P022,2025_May_13_1740,ConditionRich,2021.2.3,59.92581184685135,
68.0,68.75,25,0.75,Stimuli/P016/things_deer_08s.jpg,0,0,0.0,0,129,129,129,,,,,,,,,,,,,68.00880100000359,0.008801000003586523,None,103.64744549999887,103.64744549999887,103.64744549999887,103.64744549999887,103.64744549999887,103.64744549999887,103.64744549999887,103.64744549999887,103.64744549999887,103.64744549999887,,006,P022,2025_May_13_1740,ConditionRich,2021.2.3,59.92581184685135,
68.75,69.0,41,0.0,Stimuli/Blank.png,0,0,0.0,0,130,130,130,,,,,,,,,,,,,68.75940280000214,0.009402800002135336,None,104.3981958000004,104.3981958000004,104.3981958000004,104.3981958000004,104.3981958000004,104.3981958000004,104.3981958000004,104.3981958000004,104.3981958000004,104.3981958000004,,006,P022,2025_May_13_1740,ConditionRich,2021.2.3,59.92581184685135,
69.0,69.75,25,0.75,Stimuli/P016/things_deer_08s.jpg,0,0,0.0,0,131,131,131,,,,,,,,,,,,,69.01248699999996,0.01248699999996461,None,104.66504729999724,104.66504729999724,104.66504729999724,104.66504729999724,104.66504729999724,104.66504729999724,104.66504729999724,104.66504729999724,104.66504729999724,104.66504729999724,,006,P022,2025_May_13_1740,ConditionRich,2021.2.3,59.92581184685135,
69.75,70.0,41,0.0,Stimuli/Blank.png,0,0,0.0,0,132,132,132,,,,,,,,,,,,,69.77745909999794,0.02745909999794094,None,105.41566600000078,105.41566600000078,105.41566600000078,105.41566600000078,105.41566600000078,105.41566600000078,105.41566600000078,105.41566600000078,105.41566600000078,105.41566600000078,,006,P022,2025_May_13_1740,ConditionRich,2021.2.3,59.92581184685135,
70.0,70.75,25,0.75,Stimuli/P016/things_deer_08s.jpg,0,0,0.0,0,133,133,133,,,,,,,,,,,,,70.01050009999744,0.010500099997443613,None,105.66596389999904,105.66596389999904,105.66596389999904,105.66596389999904,105.66596389999904,105.66596389999904,105.66596389999904,105.66596389999904,105.66596389999904,105.66596389999904,,006,P022,2025_May_13_1740,ConditionRich,2021.2.3,59.92581184685135,
70.75,71.0,41,0.0,Stimuli/Blank.png,0,0,0.0,0,134,134,134,,,,,,,,,,,,,70.77857029999723,0.028570299997227266,None,106.41655739999987,106.41655739999987,106.41655739999987,106.41655739999987,106.41655739999987,106.41655739999987,106.41655739999987,106.41655739999987,106.41655739999987,106.41655739999987,,006,P022,2025_May_13_1740,ConditionRich,2021.2.3,59.92581184685135,
71.0,71.75,25,0.75,Stimuli/P016/things_deer_08s.jpg,0,0,0.0,0,135,135,135,,,,,,,,,,,,,71.0121386000028,0.012138600002799649,None,106.65009640000062,106.65009640000062,106.65009640000062,106.65009640000062,106.65009640000062,106.65009640000062,106.65009640000062,106.65009640000062,106.65009640000062,106.65009640000062,,006,P022,2025_May_13_1740,ConditionRich,2021.2.3,59.92581184685135,
71.75,72.0,41,0.0,Stimuli/Blank.png,0,0,0.0,0,136,136,136,,,,,,,,,,,,,71.76312540000072,0.013125400000717491,None,107.40075770000112,107.40075770000112,107.40075770000112,107.40075770000112,107.40075770000112,107.40075770000112,107.40075770000112,107.40075770000112,107.40075770000112,107.40075770000112,,006,P022,2025_May_13_1740,ConditionRich,2021.2.3,59.92581184685135,
72.0,72.75,1,0.75,Stimuli/P016/sun_aacpzgqrortyhyss.jpg,0,0,0.0,0,137,137,137,,,,,,,,,,,,,72.01266010000109,0.012660100001085084,None,107.65097110000352,107.65097110000352,107.65097110000352,107.65097110000352,107.65097110000352,107.65097110000352,107.65097110000352,107.65097110000352,107.65097110000352,107.65097110000352,,006,P022,2025_May_13_1740,ConditionRich,2021.2.3,59.92581184685135,
72.75,73.0,41,0.0,Stimuli/Blank.png,0,0,0.0,0,138,138,138,,,,,,,,,,,,,72.76377209999919,0.013772099999187049,None,108.40164319999894,108.40164319999894,108.40164319999894,108.40164319999894,108.40164319999894,108.40164319999894,108.40164319999894,108.40164319999894,108.40164319999894,108.40164319999894,,006,P022,2025_May_13_1740,ConditionRich,2021.2.3,59.92581184685135,
73.0,73.75,1,0.75,Stimuli/P016/sun_aacpzgqrortyhyss.jpg,0,0,0.0,0,139,139,139,,,,,,,,,,,,,73.01357570000255,0.01357570000254782,None,108.65186079999694,108.65186079999694,108.65186079999694,108.65186079999694,108.65186079999694,108.65186079999694,108.65186079999694,108.65186079999694,108.65186079999694,108.65186079999694,,006,P022,2025_May_13_1740,ConditionRich,2021.2.3,59.92581184685135,
73.75,74.0,41,0.0,Stimuli/Blank.png,0,0,0.0,0,140,140,140,,,,,,,,,,,,,73.76373140000214,0.013731400002143346,None,109.40252450000116,109.40252450000116,109.40252450000116,109.40252450000116,109.40252450000116,109.40252450000116,109.40252450000116,109.40252450000116,109.40252450000116,109.40252450000116,,006,P022,2025_May_13_1740,ConditionRich,2021.2.3,59.92581184685135,
74.0,74.75,1,0.75,Stimuli/P016/sun_aacpzgqrortyhyss.jpg,0,0,0.0,0,141,141,141,,,,,,,,,,,,,74.01487020000059,0.01487020000058692,None,109.6694650999998,109.6694650999998,109.6694650999998,109.6694650999998,109.6694650999998,109.6694650999998,109.6694650999998,109.6694650999998,109.6694650999998,109.6694650999998,,006,P022,2025_May_13_1740,ConditionRich,2021.2.3,59.92581184685135,
74.75,75.0,41,0.0,Stimuli/Blank.png,0,0,0.0,0,142,142,142,,,,,,,,,,,,,74.78199029999814,0.03199029999814229,None,110.42010489999666,110.42010489999666,110.42010489999666,110.42010489999666,110.42010489999666,110.42010489999666,110.42010489999666,110.42010489999666,110.42010489999666,110.42010489999666,,006,P022,2025_May_13_1740,ConditionRich,2021.2.3,59.92581184685135,
75.0,75.75,1,0.75,Stimuli/P016/sun_aacpzgqrortyhyss.jpg,0,0,0.0,0,143,143,143,,,,,,,,,,,,,75.01736859999801,0.017368599998007994,None,110.67032569999719,110.67032569999719,110.67032569999719,110.67032569999719,110.67032569999719,110.67032569999719,110.67032569999719,110.67032569999719,110.67032569999719,110.67032569999719,,006,P022,2025_May_13_1740,ConditionRich,2021.2.3,59.92581184685135,
75.75,76.0,41,0.0,Stimuli/Blank.png,0,0,0.0,0,144,144,144,,,,,,,,,,,,,75.76863500000036,0.01863500000035856,None,111.42099330000201,111.42099330000201,111.42099330000201,111.42099330000201,111.42099330000201,111.42099330000201,111.42099330000201,111.42099330000201,111.42099330000201,111.42099330000201,,006,P022,2025_May_13_1740,ConditionRich,2021.2.3,59.92581184685135,
76.0,76.75,14,0.75,Stimuli/P016/sun_bpvmkbyglkraoxhh.jpg,0,0,0.0,0,145,145,145,,,,,,,,,,,,,76.0193306000001,0.019330600000103004,None,111.67120479999721,111.67120479999721,111.67120479999721,111.67120479999721,111.67120479999721,111.67120479999721,111.67120479999721,111.67120479999721,111.67120479999721,111.67120479999721,,006,P022,2025_May_13_1740,ConditionRich,2021.2.3,59.92581184685135,
76.75,77.0,41,0.0,Stimuli/Blank.png,0,0,0.0,0,146,146,146,,,,,,,,,,,,,76.76715780000086,0.017157800000859424,None,112.40518840000004,112.40518840000004,112.40518840000004,112.40518840000004,112.40518840000004,112.40518840000004,112.40518840000004,112.40518840000004,112.40518840000004,112.40518840000004,,006,P022,2025_May_13_1740,ConditionRich,2021.2.3,59.92581184685135,
77.0,77.75,14,0.75,Stimuli/P016/sun_bpvmkbyglkraoxhh.jpg,0,0,0.0,0,147,147,147,,,,,,,,,,,,,77.00099130000308,0.0009913000030792318,None,112.65539960000024,112.65539960000024,112.65539960000024,112.65539960000024,112.65539960000024,112.65539960000024,112.65539960000024,112.65539960000024,112.65539960000024,112.65539960000024,,006,P022,2025_May_13_1740,ConditionRich,2021.2.3,59.92581184685135,
77.75,78.0,41,0.0,Stimuli/Blank.png,0,0,0.0,0,148,148,148,,,,,,,,,,,,,77.76822230000107,0.018222300001070835,None,113.4060759999993,113.4060759999993,113.4060759999993,113.4060759999993,113.4060759999993,113.4060759999993,113.4060759999993,113.4060759999993,113.4060759999993,113.4060759999993,,006,P022,2025_May_13_1740,ConditionRich,2021.2.3,59.92581184685135,
78.0,78.75,14,0.75,Stimuli/P016/sun_bpvmkbyglkraoxhh.jpg,0,0,0.0,0,149,149,149,,,,,,,,,,,,,78.0013145999983,0.0013145999982953072,None,113.63960699999734,113.63960699999734,113.63960699999734,113.63960699999734,113.63960699999734,113.63960699999734,113.63960699999734,113.63960699999734,113.63960699999734,113.63960699999734,,006,P022,2025_May_13_1740,ConditionRich,2021.2.3,59.92581184685135,
78.75,79.0,41,0.0,Stimuli/Blank.png,0,0,0.0,0,150,150,150,,,,,,,,,,,,,78.7521545999989,0.002154599998902995,None,114.39027409999835,114.39027409999835,114.39027409999835,114.39027409999835,114.39027409999835,114.39027409999835,114.39027409999835,114.39027409999835,114.39027409999835,114.39027409999835,,006,P022,2025_May_13_1740,ConditionRich,2021.2.3,59.92581184685135,
79.0,79.75,14,0.75,Stimuli/P016/sun_bpvmkbyglkraoxhh.jpg,1,0,0.75,0,151,151,151,,,,,,,,,,,,,79.00318130000232,0.0031813000023248605,1,114.65719209999952,114.65719209999952,114.65719209999952,114.65719209999952,114.65719209999952,114.65719209999952,114.65719209999952,115.37448289999884,114.65719209999952,114.65719209999952,0.5200865999941016,006,P022,2025_May_13_1740,ConditionRich,2021.2.3,59.92581184685135,
79.75,80.0,41,0.0,Stimuli/Blank.png,0,0,0.0,0,152,152,152,,,,,,,,,,,,,79.76990710000246,0.01990710000245599,None,115.40788810000231,115.40788810000231,115.40788810000231,115.40788810000231,115.40788810000231,115.40788810000231,115.40788810000231,115.40788810000231,115.40788810000231,115.40788810000231,,006,P022,2025_May_13_1740,ConditionRich,2021.2.3,59.92581184685135,
80.0,80.75,11,0.75,Stimuli/P016/sun_bnwmcjuinqbdsbho.jpg,0,0,0.0,0,153,153,153,,,,,,,,,,,,,80.00258600000234,0.002586000002338551,None,115.64137009999831,115.64137009999831,115.64137009999831,115.64137009999831,115.64137009999831,115.64137009999831,115.64137009999831,115.64137009999831,115.64137009999831,115.64137009999831,,006,P022,2025_May_13_1740,ConditionRich,2021.2.3,59.92581184685135,
80.75,81.0,41,0.0,Stimuli/Blank.png,0,0,0.0,0,154,154,154,,,,,,,,,,,,,80.75392989999818,0.003929899998183828,None,116.39204240000254,116.39204240000254,116.39204240000254,116.39204240000254,116.39204240000254,116.39204240000254,116.39204240000254,116.39204240000254,116.39204240000254,116.39204240000254,,006,P022,2025_May_13_1740,ConditionRich,2021.2.3,59.92581184685135,
81.0,81.75,11,0.75,Stimuli/P016/sun_bnwmcjuinqbdsbho.jpg,0,0,0.0,0,155,155,155,,,,,,,,,,,,,81.0037031000029,0.0037031000028946437,None,116.64233180000156,116.64233180000156,116.64233180000156,116.64233180000156,116.64233180000156,116.64233180000156,116.64233180000156,116.64233180000156,116.64233180000156,116.64233180000156,,006,P022,2025_May_13_1740,ConditionRich,2021.2.3,59.92581184685135,
81.75,82.0,41,0.0,Stimuli/Blank.png,0,0,0.0,0,156,156,156,,,,,,,,,,,,,81.75428919999831,0.004289199998311233,None,117.3929169999974,117.3929169999974,117.3929169999974,117.3929169999974,117.3929169999974,117.3929169999974,117.3929169999974,117.3929169999974,117.3929169999974,117.3929169999974,,006,P022,2025_May_13_1740,ConditionRich,2021.2.3,59.92581184685135,
82.0,82.75,11,0.75,Stimuli/P016/sun_bnwmcjuinqbdsbho.jpg,0,0,0.0,0,157,157,157,,,,,,,,,,,,,82.00430620000407,0.004306200004066341,None,117.64313889999903,117.64313889999903,117.64313889999903,117.64313889999903,117.64313889999903,117.64313889999903,117.64313889999903,117.64313889999903,117.64313889999903,117.64313889999903,,006,P022,2025_May_13_1740,ConditionRich,2021.2.3,59.92581184685135,
82.75,83.0,41,0.0,Stimuli/Blank.png,0,0,0.0,0,158,158,158,,,,,,,,,,,,,82.7573870999986,0.007387099998595659,None,118.41048859999864,118.41048859999864,118.41048859999864,118.41048859999864,118.41048859999864,118.41048859999864,118.41048859999864,118.41048859999864,118.41048859999864,118.41048859999864,,006,P022,2025_May_13_1740,ConditionRich,2021.2.3,59.92581184685135,
83.0,83.75,11,0.75,Stimuli/P016/sun_bnwmcjuinqbdsbho.jpg,0,0,0.0,0,159,159,159,,,,,,,,,,,,,83.02315459999954,0.02315459999954328,None,118.66072859999986,118.66072859999986,118.66072859999986,118.66072859999986,118.66072859999986,118.66072859999986,118.66072859999986,118.66072859999986,118.66072859999986,118.66072859999986,,006,P022,2025_May_13_1740,ConditionRich,2021.2.3,59.92581184685135,
83.75,84.0,41,0.0,Stimuli/Blank.png,0,0,0.0,0,160,160,160,,,,,,,,,,,,,83.75802929999918,0.008029299999179784,None,119.41137960000196,119.41137960000196,119.41137960000196,119.41137960000196,119.41137960000196,119.41137960000196,119.41137960000196,119.41137960000196,119.41137960000196,119.41137960000196,,006,P022,2025_May_13_1740,ConditionRich,2021.2.3,59.92581184685135,
84.0,100.0,0,0.0,Stimuli/Blank.png,1,12,12.75,0,161,161,161,,,,,,,,,,,,,84.02349770000001,0.02349770000000717,1,119.66160079999827,119.66160079999827,119.66160079999827,119.66160079999827,119.66160079999827,119.66160079999827,131.63884580000013,132.38951390000148,119.66160079999827,119.66160079999827,12.543803699998534,006,P022,2025_May_13_1740,ConditionRich,2021.2.3,59.92581184685135,
100.0,100.75,18,0.75,Stimuli/P016/sun_byavixgfuhzioilz.jpg,0,0,0.0,0,162,162,162,,,,,,,,,,,,,100.00362190000305,0.0036219000030541793,None,135.64238769999793,135.64238769999793,135.64238769999793,135.64238769999793,135.64238769999793,135.64238769999793,135.64238769999793,135.64238769999793,135.64238769999793,135.64238769999793,,006,P022,2025_May_13_1740,ConditionRich,2021.2.3,59.92581184685135,
100.75,101.0,41,0.0,Stimuli/Blank.png,0,0,0.0,0,163,163,163,,,,,,,,,,,,,100.75582020000002,0.005820200000016484,None,136.39306229999784,136.39306229999784,136.39306229999784,136.39306229999784,136.39306229999784,136.39306229999784,136.39306229999784,136.39306229999784,136.39306229999784,136.39306229999784,,006,P022,2025_May_13_1740,ConditionRich,2021.2.3,59.92581184685135,
101.0,101.75,18,0.75,Stimuli/P016/sun_byavixgfuhzioilz.jpg,0,0,0.0,0,164,164,164,,,,,,,,,,,,,101.00458580000122,0.004585800001223106,None,136.64327700000285,136.64327700000285,136.64327700000285,136.64327700000285,136.64327700000285,136.64327700000285,136.64327700000285,136.64327700000285,136.64327700000285,136.64327700000285,,006,P022,2025_May_13_1740,ConditionRich,2021.2.3,59.92581184685135,
101.75,102.0,41,0.0,Stimuli/Blank.png,0,0,0.0,0,165,165,165,,,,,,,,,,,,,101.7552097000007,0.0052097000007051975,None,137.3939470999976,137.3939470999976,137.3939470999976,137.3939470999976,137.3939470999976,137.3939470999976,137.3939470999976,137.3939470999976,137.3939470999976,137.3939470999976,,006,P022,2025_May_13_1740,ConditionRich,2021.2.3,59.92581184685135,
102.0,102.75,18,0.75,Stimuli/P016/sun_byavixgfuhzioilz.jpg,0,0,0.0,0,166,166,166,,,,,,,,,,,,,102.00558949999686,0.005589499996858649,None,137.6608464000019,137.6608464000019,137.6608464000019,137.6608464000019,137.6608464000019,137.6608464000019,137.6608464000019,137.6608464000019,137.6608464000019,137.6608464000019,,006,P022,2025_May_13_1740,ConditionRich,2021.2.3,59.92581184685135,
102.75,103.0,41,0.0,Stimuli/Blank.png,0,0,0.0,0,167,167,167,,,,,,,,,,,,,102.77350960000331,0.02350960000330815,None,138.411485800003,138.411485800003,138.411485800003,138.411485800003,138.411485800003,138.411485800003,138.411485800003,138.411485800003,138.411485800003,138.411485800003,,006,P022,2025_May_13_1740,ConditionRich,2021.2.3,59.92581184685135,
103.0,103.75,18,0.75,Stimuli/P016/sun_byavixgfuhzioilz.jpg,0,0,0.0,0,168,168,168,,,,,,,,,,,,,103.00742270000046,0.007422700000461191,None,138.66177790000074,138.66177790000074,138.66177790000074,138.66177790000074,138.66177790000074,138.66177790000074,138.66177790000074,138.66177790000074,138.66177790000074,138.66177790000074,,006,P022,2025_May_13_1740,ConditionRich,2021.2.3,59.92581184685135,
103.75,104.0,41,0.0,Stimuli/Blank.png,0,0,0.0,0,169,169,169,,,,,,,,,,,,,103.77363319999859,0.02363319999858504,None,139.41239779999887,139.41239779999887,139.41239779999887,139.41239779999887,139.41239779999887,139.41239779999887,139.41239779999887,139.41239779999887,139.41239779999887,139.41239779999887,,006,P022,2025_May_13_1740,ConditionRich,2021.2.3,59.92581184685135,
104.0,104.75,40,0.75,Stimuli/P016/things_woman_08s.jpg,0,0,0.0,0,170,170,170,,,,,,,,,,,,,104.00712680000288,0.007126800002879463,None,139.6459309999991,139.6459309999991,139.6459309999991,139.6459309999991,139.6459309999991,139.6459309999991,139.6459309999991,139.6459309999991,139.6459309999991,139.6459309999991,,006,P022,2025_May_13_1740,ConditionRich,2021.2.3,59.92581184685135,
104.75,105.0,41,0.0,Stimuli/Blank.png,0,0,0.0,0,171,171,171,,,,,,,,,,,,,104.75841650000075,0.008416500000748783,None,140.3966017999992,140.3966017999992,140.3966017999992,140.3966017999992,140.3966017999992,140.3966017999992,140.3966017999992,140.3966017999992,140.3966017999992,140.3966017999992,,006,P022,2025_May_13_1740,ConditionRich,2021.2.3,59.92581184685135,
105.0,105.75,40,0.75,Stimuli/P016/things_woman_08s.jpg,1,0,0.75,0,172,172,172,,,,,,,,,,,,,105.00870279999799,0.008702799997990951,None,140.64682750000065,140.64682750000065,140.64682750000065,140.64682750000065,140.64682750000065,140.64682750000065,140.64682750000065,141.38079270000162,140.64682750000065,140.64682750000065,,006,P022,2025_May_13_1740,ConditionRich,2021.2.3,59.92581184685135,
105.75,106.0,41,0.0,Stimuli/Blank.png,0,0,0.0,0,173,173,173,,,,,,,,,,,,,105.7588023999997,0.008802399999694899,1,141.39748680000048,141.39748680000048,141.39748680000048,141.39748680000048,141.39748680000048,141.39748680000048,141.39748680000048,141.39748680000048,141.39748680000048,141.39748680000048,0.026818599995749537,006,P022,2025_May_13_1740,ConditionRich,2021.2.3,59.92581184685135,
106.0,106.75,40,0.75,Stimuli/P016/things_woman_08s.jpg,0,0,0.0,0,174,174,174,,,,,,,,,,,,,106.00977899999998,0.009778999999980442,None,141.6644038000013,141.6644038000013,141.6644038000013,141.6644038000013,141.6644038000013,141.6644038000013,141.6644038000013,141.6644038000013,141.6644038000013,141.6644038000013,,006,P022,2025_May_13_1740,ConditionRich,2021.2.3,59.92581184685135,
106.75,107.0,41,0.0,Stimuli/Blank.png,0,0,0.0,0,175,175,175,,,,,,,,,,,,,106.77707579999696,0.027075799996964633,None,142.4150477000003,142.4150477000003,142.4150477000003,142.4150477000003,142.4150477000003,142.4150477000003,142.4150477000003,142.4150477000003,142.4150477000003,142.4150477000003,,006,P022,2025_May_13_1740,ConditionRich,2021.2.3,59.92581184685135,
107.0,107.75,40,0.75,Stimuli/P016/things_woman_08s.jpg,0,0,0.0,0,176,176,176,,,,,,,,,,,,,107.01280219999899,0.012802199998986907,None,142.66527099999803,142.66527099999803,142.66527099999803,142.66527099999803,142.66527099999803,142.66527099999803,142.66527099999803,142.66527099999803,142.66527099999803,142.66527099999803,,006,P022,2025_May_13_1740,ConditionRich,2021.2.3,59.92581184685135,
107.75,108.0,41,0.0,Stimuli/Blank.png,0,0,0.0,0,177,177,177,,,,,,,,,,,,,107.77840000000288,0.02840000000287546,None,143.41593229999853,143.41593229999853,143.41593229999853,143.41593229999853,143.41593229999853,143.41593229999853,143.41593229999853,143.41593229999853,143.41593229999853,143.41593229999853,,006,P022,2025_May_13_1740,ConditionRich,2021.2.3,59.92581184685135,
108.0,108.75,39,0.75,Stimuli/P016/things_window_08s.jpg,0,0,0.0,0,178,178,178,,,,,,,,,,,,,108.01133259999915,0.011332599999150261,None,143.64947669999674,143.64947669999674,143.64947669999674,143.64947669999674,143.64947669999674,143.64947669999674,143.64947669999674,143.64947669999674,143.64947669999674,143.64947669999674,,006,P022,2025_May_13_1740,ConditionRich,2021.2.3,59.92581184685135,
108.75,109.0,41,0.0,Stimuli/Blank.png,0,0,0.0,0,179,179,179,,,,,,,,,,,,,108.76208339999721,0.012083399997209199,None,144.40013149999868,144.40013149999868,144.40013149999868,144.40013149999868,144.40013149999868,144.40013149999868,144.40013149999868,144.40013149999868,144.40013149999868,144.40013149999868,,006,P022,2025_May_13_1740,ConditionRich,2021.2.3,59.92581184685135,
109.0,109.75,39,0.75,Stimuli/P016/things_window_08s.jpg,0,0,0.0,0,180,180,180,,,,,,,,,,,,,109.0130272000024,0.013027200002397876,None,144.6670421000017,144.6670421000017,144.6670421000017,144.6670421000017,144.6670421000017,144.6670421000017,144.6670421000017,144.6670421000017,144.6670421000017,144.6670421000017,,006,P022,2025_May_13_1740,ConditionRich,2021.2.3,59.92581184685135,
109.75,110.0,41,0.0,Stimuli/Blank.png,0,0,0.0,0,181,181,181,,,,,,,,,,,,,109.77914880000026,0.029148800000257324,None,145.41769390000263,145.41769390000263,145.41769390000263,145.41769390000263,145.41769390000263,145.41769390000263,145.41769390000263,145.41769390000263,145.41769390000263,145.41769390000263,,006,P022,2025_May_13_1740,ConditionRich,2021.2.3,59.92581184685135,
110.0,110.75,39,0.75,Stimuli/P016/things_window_08s.jpg,0,0,0.0,0,182,182,182,,,,,,,,,,,,,110.01307449999877,0.013074499998765532,None,145.65123779999703,145.65123779999703,145.65123779999703,145.65123779999703,145.65123779999703,145.65123779999703,145.65123779999703,145.65123779999703,145.65123779999703,145.65123779999703,,006,P022,2025_May_13_1740,ConditionRich,2021.2.3,59.92581184685135,
110.75,111.0,41,0.0,Stimuli/Blank.png,0,0,0.0,0,183,183,183,,,,,,,,,,,,,110.76390469999751,0.013904699997510761,None,146.4019066999972,146.4019066999972,146.4019066999972,146.4019066999972,146.4019066999972,146.4019066999972,146.4019066999972,146.4019066999972,146.4019066999972,146.4019066999972,,006,P022,2025_May_13_1740,ConditionRich,2021.2.3,59.92581184685135,
111.0,111.75,39,0.75,Stimuli/P016/things_window_08s.jpg,0,0,0.0,0,184,184,184,,,,,,,,,,,,,111.01354059999721,0.013540599997213576,None,146.65212410000095,146.65212410000095,146.65212410000095,146.65212410000095,146.65212410000095,146.65212410000095,146.65212410000095,146.65212410000095,146.65212410000095,146.65212410000095,,006,P022,2025_May_13_1740,ConditionRich,2021.2.3,59.92581184685135,
111.75,112.0,41,0.0,Stimuli/Blank.png,0,0,0.0,0,185,185,185,,,,,,,,,,,,,111.76482830000168,0.014828300001681782,None,147.40279449999798,147.40279449999798,147.40279449999798,147.40279449999798,147.40279449999798,147.40279449999798,147.40279449999798,147.40279449999798,147.40279449999798,147.40279449999798,,006,P022,2025_May_13_1740,ConditionRich,2021.2.3,59.92581184685135,
112.0,112.75,16,0.75,Stimuli/P016/sun_bwhuwxazfqwuqhik.jpg,0,0,0.0,0,186,186,186,,,,,,,,,,,,,112.01423710000381,0.014237100003811065,None,147.6530023000014,147.6530023000014,147.6530023000014,147.6530023000014,147.6530023000014,147.6530023000014,147.6530023000014,147.6530023000014,147.6530023000014,147.6530023000014,,006,P022,2025_May_13_1740,ConditionRich,2021.2.3,59.92581184685135,
112.75,113.0,41,0.0,Stimuli/Blank.png,0,0,0.0,0,187,187,187,,,,,,,,,,,,,112.7675079000037,0.017507900003693067,None,148.42035749999923,148.42035749999923,148.42035749999923,148.42035749999923,148.42035749999923,148.42035749999923,148.42035749999923,148.42035749999923,148.42035749999923,148.42035749999923,,006,P022,2025_May_13_1740,ConditionRich,2021.2.3,59.92581184685135,
113.0,113.75,16,0.75,Stimuli/P016/sun_bwhuwxazfqwuqhik.jpg,0,0,0.0,0,188,188,188,,,,,,,,,,,,,113.01856989999942,0.01856989999942016,None,148.6705820999996,148.6705820999996,148.6705820999996,148.6705820999996,148.6705820999996,148.6705820999996,148.6705820999996,148.6705820999996,148.6705820999996,148.6705820999996,,006,P022,2025_May_13_1740,ConditionRich,2021.2.3,59.92581184685135,
113.75,114.0,41,0.0,Stimuli/Blank.png,0,0,0.0,0,189,189,189,,,,,,,,,,,,,113.76881519999733,0.018815199997334275,None,149.42128439999942,149.42128439999942,149.42128439999942,149.42128439999942,149.42128439999942,149.42128439999942,149.42128439999942,149.42128439999942,149.42128439999942,149.42128439999942,,006,P022,2025_May_13_1740,ConditionRich,2021.2.3,59.92581184685135,
114.0,114.75,16,0.75,Stimuli/P016/sun_bwhuwxazfqwuqhik.jpg,0,0,0.0,0,190,190,190,,,,,,,,,,,,,114.01881590000266,0.01881590000266442,None,149.67146019999927,149.67146019999927,149.67146019999927,149.67146019999927,149.67146019999927,149.67146019999927,149.67146019999927,149.67146019999927,149.67146019999927,149.67146019999927,,006,P022,2025_May_13_1740,ConditionRich,2021.2.3,59.92581184685135,
114.75,115.0,41,0.0,Stimuli/Blank.png,0,0,0.0,0,191,191,191,,,,,,,,,,,,,114.76727530000062,0.01727530000061961,None,150.40544780000346,150.40544780000346,150.40544780000346,150.40544780000346,150.40544780000346,150.40544780000346,150.40544780000346,150.40544780000346,150.40544780000346,150.40544780000346,,006,P022,2025_May_13_1740,ConditionRich,2021.2.3,59.92581184685135,
115.0,115.75,16,0.75,Stimuli/P016/sun_bwhuwxazfqwuqhik.jpg,0,0,0.0,0,192,192,192,,,,,,,,,,,,,115.00248670000292,0.002486700002918951,None,150.65565790000255,150.65565790000255,150.65565790000255,150.65565790000255,150.65565790000255,150.65565790000255,150.65565790000255,150.65565790000255,150.65565790000255,150.65565790000255,,006,P022,2025_May_13_1740,ConditionRich,2021.2.3,59.92581184685135,
115.75,116.0,41,0.0,Stimuli/Blank.png,0,0,0.0,0,193,193,193,,,,,,,,,,,,,115.76927940000314,0.019279400003142655,None,151.42315200000303,151.42315200000303,151.42315200000303,151.42315200000303,151.42315200000303,151.42315200000303,151.42315200000303,151.42315200000303,151.42315200000303,151.42315200000303,,006,P022,2025_May_13_1740,ConditionRich,2021.2.3,59.92581184685135,
116.0,116.75,27,0.75,Stimuli/P016/things_girl_08s.jpg,0,0,0.0,0,194,194,194,,,,,,,,,,,,,116.01847300000372,0.018473000003723428,None,151.65655420000257,151.65655420000257,151.65655420000257,151.65655420000257,151.65655420000257,151.65655420000257,151.65655420000257,151.65655420000257,151.65655420000257,151.65655420000257,,006,P022,2025_May_13_1740,ConditionRich,2021.2.3,59.92581184685135,
116.75,117.0,41,0.0,Stimuli/Blank.png,0,0,0.0,0,195,195,195,,,,,,,,,,,,,116.75303690000146,0.0030369000014616176,None,152.39054239999678,152.39054239999678,152.39054239999678,152.39054239999678,152.39054239999678,152.39054239999678,152.39054239999678,152.39054239999678,152.39054239999678,152.39054239999678,,006,P022,2025_May_13_1740,ConditionRich,2021.2.3,59.92581184685135,
117.0,117.75,27,0.75,Stimuli/P016/things_girl_08s.jpg,0,0,0.0,0,196,196,196,,,,,,,,,,,,,117.0033414999998,0.0033414999998058192,None,152.65742760000285,152.65742760000285,152.65742760000285,152.65742760000285,152.65742760000285,152.65742760000285,152.65742760000285,152.65742760000285,152.65742760000285,152.65742760000285,,006,P022,2025_May_13_1740,ConditionRich,2021.2.3,59.92581184685135,
117.75,118.0,41,0.0,Stimuli/Blank.png,0,0,0.0,0,197,197,197,,,,,,,,,,,,,117.76956749999954,0.019567499999538995,None,153.40814059999684,153.40814059999684,153.40814059999684,153.40814059999684,153.40814059999684,153.40814059999684,153.40814059999684,153.40814059999684,153.40814059999684,153.40814059999684,,006,P022,2025_May_13_1740,ConditionRich,2021.2.3,59.92581184685135,
118.0,118.75,27,0.75,Stimuli/P016/things_girl_08s.jpg,0,0,0.0,0,198,198,198,,,,,,,,,,,,,118.00349760000245,0.003497600002447143,None,153.641635699998,153.641635699998,153.641635699998,153.641635699998,153.641635699998,153.641635699998,153.641635699998,153.641635699998,153.641635699998,153.641635699998,,006,P022,2025_May_13_1740,ConditionRich,2021.2.3,59.92581184685135,
118.75,119.0,41,0.0,Stimuli/Blank.png,0,0,0.0,0,199,199,199,,,,,,,,,,,,,118.75439419999748,0.004394199997477699,None,154.3922917000018,154.3922917000018,154.3922917000018,154.3922917000018,154.3922917000018,154.3922917000018,154.3922917000018,154.3922917000018,154.3922917000018,154.3922917000018,,006,P022,2025_May_13_1740,ConditionRich,2021.2.3,59.92581184685135,
119.0,119.75,27,0.75,Stimuli/P016/things_girl_08s.jpg,0,0,0.0,0,200,200,200,,,,,,,,,,,,,119.00432849999925,0.00432849999924656,None,154.64251479999803,154.64251479999803,154.64251479999803,154.64251479999803,154.64251479999803,154.64251479999803,154.64251479999803,154.64251479999803,154.64251479999803,154.64251479999803,,006,P022,2025_May_13_1740,ConditionRich,2021.2.3,59.92581184685135,
119.75,120.0,41,0.0,Stimuli/Blank.png,0,0,0.0,0,201,201,201,,,,,,,,,,,,,119.75503570000001,0.005035700000007637,None,155.39317909999954,155.39317909999954,155.39317909999954,155.39317909999954,155.39317909999954,155.39317909999954,155.39317909999954,155.39317909999954,155.39317909999954,155.39317909999954,,006,P022,2025_May_13_1740,ConditionRich,2021.2.3,59.92581184685135,
120.0,120.75,20,0.75,Stimuli/P016/sun_bzmxulijbnmshodq.jpg,0,0,0.0,0,202,202,202,,,,,,,,,,,,,120.00788029999967,0.00788029999966966,None,155.6601023999974,155.6601023999974,155.6601023999974,155.6601023999974,155.6601023999974,155.6601023999974,155.6601023999974,155.6601023999974,155.6601023999974,155.6601023999974,,006,P022,2025_May_13_1740,ConditionRich,2021.2.3,59.92581184685135,
120.75,121.0,41,0.0,Stimuli/Blank.png,0,0,0.0,0,203,203,203,,,,,,,,,,,,,120.77211759999773,0.022117599997727666,None,156.4107759000035,156.4107759000035,156.4107759000035,156.4107759000035,156.4107759000035,156.4107759000035,156.4107759000035,156.4107759000035,156.4107759000035,156.4107759000035,,006,P022,2025_May_13_1740,ConditionRich,2021.2.3,59.92581184685135,
121.0,121.75,20,0.75,Stimuli/P016/sun_bzmxulijbnmshodq.jpg,0,0,0.0,0,204,204,204,,,,,,,,,,,,,121.00849520000338,0.008495200003380887,None,156.66097730000183,156.66097730000183,156.66097730000183,156.66097730000183,156.66097730000183,156.66097730000183,156.66097730000183,156.66097730000183,156.66097730000183,156.66097730000183,,006,P022,2025_May_13_1740,ConditionRich,2021.2.3,59.92581184685135,
121.75,122.0,41,0.0,Stimuli/Blank.png,0,0,0.0,0,205,205,205,,,,,,,,,,,,,121.7736412000013,0.023641200001293328,None,157.41165300000284,157.41165300000284,157.41165300000284,157.41165300000284,157.41165300000284,157.41165300000284,157.41165300000284,157.41165300000284,157.41165300000284,157.41165300000284,,006,P022,2025_May_13_1740,ConditionRich,2021.2.3,59.92581184685135,
122.0,122.75,20,0.75,Stimuli/P016/sun_bzmxulijbnmshodq.jpg,0,0,0.0,0,206,206,206,,,,,,,,,,,,,122.00692050000362,0.0069205000036163256,None,157.6451672999974,157.6451672999974,157.6451672999974,157.6451672999974,157.6451672999974,157.6451672999974,157.6451672999974,157.6451672999974,157.6451672999974,157.6451672999974,,006,P022,2025_May_13_1740,ConditionRich,2021.2.3,59.92581184685135,
122.75,123.0,41,0.0,Stimuli/Blank.png,0,0,0.0,0,207,207,207,,,,,,,,,,,,,122.75850280000304,0.008502800003043376,None,158.39584340000147,158.39584340000147,158.39584340000147,158.39584340000147,158.39584340000147,158.39584340000147,158.39584340000147,158.39584340000147,158.39584340000147,158.39584340000147,,006,P022,2025_May_13_1740,ConditionRich,2021.2.3,59.92581184685135,
123.0,123.75,20,0.75,Stimuli/P016/sun_bzmxulijbnmshodq.jpg,0,0,0.0,0,208,208,208,,,,,,,,,,,,,123.00820250000106,0.008202500001061708,None,158.64606430000276,158.64606430000276,158.64606430000276,158.64606430000276,158.64606430000276,158.64606430000276,158.64606430000276,158.64606430000276,158.64606430000276,158.64606430000276,,006,P022,2025_May_13_1740,ConditionRich,2021.2.3,59.92581184685135,
123.75,124.0,41,0.0,Stimuli/Blank.png,0,0,0.0,0,209,209,209,,,,,,,,,,,,,123.7587440999996,0.00874409999960335,None,159.3967233000003,159.3967233000003,159.3967233000003,159.3967233000003,159.3967233000003,159.3967233000003,159.3967233000003,159.3967233000003,159.3967233000003,159.3967233000003,,006,P022,2025_May_13_1740,ConditionRich,2021.2.3,59.92581184685135,
124.0,124.75,15,0.75,Stimuli/P016/sun_bvfcijehgdsndfbg.jpg,1,0,0.75,0,210,210,210,,,,,,,,,,,,,124.00864359999832,0.008643599998322316,1,159.64694160000363,159.64694160000363,159.64694160000363,159.64694160000363,159.64694160000363,159.64694160000363,159.64694160000363,160.38092560000223,159.64694160000363,159.64694160000363,0.5253770999988774,006,P022,2025_May_13_1740,ConditionRich,2021.2.3,59.92581184685135,
124.75,125.0,41,0.0,Stimuli/Blank.png,0,0,0.0,0,211,211,211,,,,,,,,,,,,,124.75939720000315,0.00939720000314992,None,160.39760240000032,160.39760240000032,160.39760240000032,160.39760240000032,160.39760240000032,160.39760240000032,160.39760240000032,160.39760240000032,160.39760240000032,160.39760240000032,,006,P022,2025_May_13_1740,ConditionRich,2021.2.3,59.92581184685135,
125.0,125.75,15,0.75,Stimuli/P016/sun_bvfcijehgdsndfbg.jpg,0,0,0.0,0,212,212,212,,,,,,,,,,,,,125.00961149999785,0.009611499997845385,None,160.64783660000103,160.64783660000103,160.64783660000103,160.64783660000103,160.64783660000103,160.64783660000103,160.64783660000103,160.64783660000103,160.64783660000103,160.64783660000103,,006,P022,2025_May_13_1740,ConditionRich,2021.2.3,59.92581184685135,
125.75,126.0,41,0.0,Stimuli/Blank.png,0,0,0.0,0,213,213,213,,,,,,,,,,,,,125.75982920000388,0.009829200003878213,None,161.39856059999875,161.39856059999875,161.39856059999875,161.39856059999875,161.39856059999875,161.39856059999875,161.39856059999875,161.39856059999875,161.39856059999875,161.39856059999875,,006,P022,2025_May_13_1740,ConditionRich,2021.2.3,59.92581184685135,
126.0,126.75,15,0.75,Stimuli/P016/sun_bvfcijehgdsndfbg.jpg,0,0,0.0,0,214,214,214,,,,,,,,,,,,,126.01016209999943,0.010162099999433849,None,161.66540630000236,161.66540630000236,161.66540630000236,161.66540630000236,161.66540630000236,161.66540630000236,161.66540630000236,161.66540630000236,161.66540630000236,161.66540630000236,,006,P022,2025_May_13_1740,ConditionRich,2021.2.3,59.92581184685135,
126.75,127.0,41,0.0,Stimuli/Blank.png,0,0,0.0,0,215,215,215,,,,,,,,,,,,,126.77833980000287,0.028339800002868287,None,162.4160677999971,162.4160677999971,162.4160677999971,162.4160677999971,162.4160677999971,162.4160677999971,162.4160677999971,162.4160677999971,162.4160677999971,162.4160677999971,,006,P022,2025_May_13_1740,ConditionRich,2021.2.3,59.92581184685135,
127.0,127.75,15,0.75,Stimuli/P016/sun_bvfcijehgdsndfbg.jpg,0,0,0.0,0,216,216,216,,,,,,,,,,,,,127.01364560000366,0.013645600003656,None,162.6663069999995,162.6663069999995,162.6663069999995,162.6663069999995,162.6663069999995,162.6663069999995,162.6663069999995,162.6663069999995,162.6663069999995,162.6663069999995,,006,P022,2025_May_13_1740,ConditionRich,2021.2.3,59.92581184685135,
127.75,128.0,41,0.0,Stimuli/Blank.png,0,0,0.0,0,217,217,217,,,,,,,,,,,,,127.77840319999814,0.028403199998138007,None,163.41693620000297,163.41693620000297,163.41693620000297,163.41693620000297,163.41693620000297,163.41693620000297,163.41693620000297,163.41693620000297,163.41693620000297,163.41693620000297,,006,P022,2025_May_13_1740,ConditionRich,2021.2.3,59.92581184685135,
128.0,128.75,13,0.75,Stimuli/P016/sun_bphvjnowixlryxot.jpg,0,0,0.0,0,218,218,218,,,,,,,,,,,,,128.01175220000005,0.011752200000046287,None,163.650493000001,163.650493000001,163.650493000001,163.650493000001,163.650493000001,163.650493000001,163.650493000001,163.650493000001,163.650493000001,163.650493000001,,006,P022,2025_May_13_1740,ConditionRich,2021.2.3,59.92581184685135,
128.75,129.0,41,0.0,Stimuli/Blank.png,0,0,0.0,0,219,219,219,,,,,,,,,,,,,128.76402480000252,0.014024800002516713,None,164.41790200000105,164.41790200000105,164.41790200000105,164.41790200000105,164.41790200000105,164.41790200000105,164.41790200000105,164.41790200000105,164.41790200000105,164.41790200000105,,006,P022,2025_May_13_1740,ConditionRich,2021.2.3,59.92581184685135,
129.0,129.75,13,0.75,Stimuli/P016/sun_bphvjnowixlryxot.jpg,0,0,0.0,0,220,220,220,,,,,,,,,,,,,129.02956509999785,0.029565099997853395,None,164.6847628999967,164.6847628999967,164.6847628999967,164.6847628999967,164.6847628999967,164.6847628999967,164.6847628999967,164.6847628999967,164.6847628999967,164.6847628999967,,006,P022,2025_May_13_1740,ConditionRich,2021.2.3,59.92581184685135,
129.75,130.0,41,0.0,Stimuli/Blank.png,0,0,0.0,0,221,221,221,,,,,,,,,,,,,129.78265960000135,0.032659600001352374,None,165.43540210000356,165.43540210000356,165.43540210000356,165.43540210000356,165.43540210000356,165.43540210000356,165.43540210000356,165.43540210000356,165.43540210000356,165.43540210000356,,006,P022,2025_May_13_1740,ConditionRich,2021.2.3,59.92581184685135,
130.0,130.75,13,0.75,Stimuli/P016/sun_bphvjnowixlryxot.jpg,0,0,0.0,0,222,222,222,,,,,,,,,,,,,130.0137337999986,0.013733799998590257,None,165.66896740000084,165.66896740000084,165.66896740000084,165.66896740000084,165.66896740000084,165.66896740000084,165.66896740000084,165.66896740000084,165.66896740000084,165.66896740000084,,006,P022,2025_May_13_1740,ConditionRich,2021.2.3,59.92581184685135,
130.75,131.0,41,0.0,Stimuli/Blank.png,0,0,0.0,0,223,223,223,,,,,,,,,,,,,130.78110220000235,0.03110220000235131,None,166.41963060000126,166.41963060000126,166.41963060000126,166.41963060000126,166.41963060000126,166.41963060000126,166.41963060000126,166.41963060000126,166.41963060000126,166.41963060000126,,006,P022,2025_May_13_1740,ConditionRich,2021.2.3,59.92581184685135,
131.0,131.75,13,0.75,Stimuli/P016/sun_bphvjnowixlryxot.jpg,0,0,0.0,0,224,224,224,,,,,,,,,,,,,131.01447120000375,0.014471200003754348,None,166.6698247000022,166.6698247000022,166.6698247000022,166.6698247000022,166.6698247000022,166.6698247000022,166.6698247000022,166.6698247000022,166.6698247000022,166.6698247000022,,006,P022,2025_May_13_1740,ConditionRich,2021.2.3,59.92581184685135,
131.75,132.0,41,0.0,Stimuli/Blank.png,0,0,0.0,0,225,225,225,,,,,,,,,,,,,131.78232440000284,0.03232440000283532,None,167.42050510000263,167.42050510000263,167.42050510000263,167.42050510000263,167.42050510000263,167.42050510000263,167.42050510000263,167.42050510000263,167.42050510000263,167.42050510000263,,006,P022,2025_May_13_1740,ConditionRich,2021.2.3,59.92581184685135,
132.0,132.75,19,0.75,Stimuli/P016/sun_bzhwvgrzvttqoexa.jpg,0,0,0.0,0,226,226,226,,,,,,,,,,,,,131.99922679999872,-0.0007732000012765639,None,167.63734180000029,167.63734180000029,167.63734180000029,167.63734180000029,167.63734180000029,167.63734180000029,167.63734180000029,167.63734180000029,167.63734180000029,167.63734180000029,,006,P022,2025_May_13_1740,ConditionRich,2021.2.3,59.92581184685135,
132.75,133.0,41,0.0,Stimuli/Blank.png,0,0,0.0,0,227,227,227,,,,,,,,,,,,,132.74945060000027,-0.0005493999997270294,None,168.38800829999673,168.38800829999673,168.38800829999673,168.38800829999673,168.38800829999673,168.38800829999673,168.38800829999673,168.38800829999673,168.38800829999673,168.38800829999673,,006,P022,2025_May_13_1740,ConditionRich,2021.2.3,59.92581184685135,
133.0,133.75,19,0.75,Stimuli/P016/sun_bzhwvgrzvttqoexa.jpg,0,0,0.0,0,228,228,228,,,,,,,,,,,,,132.99986940000235,-0.00013059999764664099,None,168.6549290999974,168.6549290999974,168.6549290999974,168.6549290999974,168.6549290999974,168.6549290999974,168.6549290999974,168.6549290999974,168.6549290999974,168.6549290999974,,006,P022,2025_May_13_1740,ConditionRich,2021.2.3,59.92581184685135,
133.75,134.0,41,0.0,Stimuli/Blank.png,0,0,0.0,0,229,229,229,,,,,,,,,,,,,133.76797149999766,0.017971499997656792,None,169.406336,169.406336,169.406336,169.406336,169.406336,169.406336,169.406336,169.406336,169.406336,169.406336,,006,P022,2025_May_13_1740,ConditionRich,2021.2.3,59.92581184685135,
134.0,134.75,19,0.75,Stimuli/P016/sun_bzhwvgrzvttqoexa.jpg,1,0,0.75,0,230,230,230,,,,,,,,,,,,,134.00088929999765,0.0008892999976524152,1,169.63918410000042,169.63918410000042,169.63918410000042,169.63918410000042,169.63918410000042,169.63918410000042,169.63918410000042,170.3731278999985,169.63918410000042,169.63918410000042,0.41315519999625394,006,P022,2025_May_13_1740,ConditionRich,2021.2.3,59.92581184685135,
134.75,135.0,41,0.0,Stimuli/Blank.png,0,0,0.0,0,231,231,231,,,,,,,,,,,,,134.75362100000348,0.003621000003477093,None,170.4064556000012,170.4064556000012,170.4064556000012,170.4064556000012,170.4064556000012,170.4064556000012,170.4064556000012,170.4064556000012,170.4064556000012,170.4064556000012,,006,P022,2025_May_13_1740,ConditionRich,2021.2.3,59.92581184685135,
135.0,135.75,19,0.75,Stimuli/P016/sun_bzhwvgrzvttqoexa.jpg,0,0,0.0,0,232,232,232,,,,,,,,,,,,,135.01784359999874,0.01784359999874141,None,170.6566679000025,170.6566679000025,170.6566679000025,170.6566679000025,170.6566679000025,170.6566679000025,170.6566679000025,170.6566679000025,170.6566679000025,170.6566679000025,,006,P022,2025_May_13_1740,ConditionRich,2021.2.3,59.92581184685135,
135.75,136.0,41,0.0,Stimuli/Blank.png,0,0,0.0,0,233,233,233,,,,,,,,,,,,,135.75325650000013,0.0032565000001341105,None,171.40736319999996,171.40736319999996,171.40736319999996,171.40736319999996,171.40736319999996,171.40736319999996,171.40736319999996,171.40736319999996,171.40736319999996,171.40736319999996,,006,P022,2025_May_13_1740,ConditionRich,2021.2.3,59.92581184685135,
136.0,136.75,9,0.75,Stimuli/P016/sun_bbdgftzhpkaklkll.jpg,0,0,0.0,0,234,234,234,,,,,,,,,,,,,136.01950190000207,0.019501900002069306,None,171.67425879999792,171.67425879999792,171.67425879999792,171.67425879999792,171.67425879999792,171.67425879999792,171.67425879999792,171.67425879999792,171.67425879999792,171.67425879999792,,006,P022,2025_May_13_1740,ConditionRich,2021.2.3,59.92581184685135,
136.75,137.0,41,0.0,Stimuli/Blank.png,0,0,0.0,0,235,235,235,,,,,,,,,,,,,136.76977579999948,0.019775799999479204,None,172.40831199999957,172.40831199999957,172.40831199999957,172.40831199999957,172.40831199999957,172.40831199999957,172.40831199999957,172.40831199999957,172.40831199999957,172.40831199999957,,006,P022,2025_May_13_1740,ConditionRich,2021.2.3,59.92581184685135,
137.0,137.75,9,0.75,Stimuli/P016/sun_bbdgftzhpkaklkll.jpg,0,0,0.0,0,236,236,236,,,,,,,,,,,,,137.0032480000009,0.0032480000008945353,None,172.64174340000318,172.64174340000318,172.64174340000318,172.64174340000318,172.64174340000318,172.64174340000318,172.64174340000318,172.64174340000318,172.64174340000318,172.64174340000318,,006,P022,2025_May_13_1740,ConditionRich,2021.2.3,59.92581184685135,
137.75,138.0,41,0.0,Stimuli/Blank.png,0,0,0.0,0,237,237,237,,,,,,,,,,,,,137.7536106999978,0.0036106999978073873,None,173.39243140000326,173.39243140000326,173.39243140000326,173.39243140000326,173.39243140000326,173.39243140000326,173.39243140000326,173.39243140000326,173.39243140000326,173.39243140000326,,006,P022,2025_May_13_1740,ConditionRich,2021.2.3,59.92581184685135,
138.0,138.75,9,0.75,Stimuli/P016/sun_bbdgftzhpkaklkll.jpg,0,0,0.0,0,238,238,238,,,,,,,,,,,,,138.00484210000286,0.004842100002861116,None,173.65934859999834,173.65934859999834,173.65934859999834,173.65934859999834,173.65934859999834,173.65934859999834,173.65934859999834,173.65934859999834,173.65934859999834,173.65934859999834,,006,P022,2025_May_13_1740,ConditionRich,2021.2.3,59.92581184685135,
138.75,139.0,41,0.0,Stimuli/Blank.png,0,0,0.0,0,239,239,239,,,,,,,,,,,,,138.77197980000346,0.021979800003464334,None,174.41001010000036,174.41001010000036,174.41001010000036,174.41001010000036,174.41001010000036,174.41001010000036,174.41001010000036,174.41001010000036,174.41001010000036,174.41001010000036,,006,P022,2025_May_13_1740,ConditionRich,2021.2.3,59.92581184685135,
139.0,139.75,9,0.75,Stimuli/P016/sun_bbdgftzhpkaklkll.jpg,0,0,0.0,0,240,240,240,,,,,,,,,,,,,139.00531259999843,0.005312599998433143,None,174.64353210000263,174.64353210000263,174.64353210000263,174.64353210000263,174.64353210000263,174.64353210000263,174.64353210000263,174.64353210000263,174.64353210000263,174.64353210000263,,006,P022,2025_May_13_1740,ConditionRich,2021.2.3,59.92581184685135,
139.75,140.0,41,0.0,Stimuli/Blank.png,0,0,0.0,0,241,241,241,,,,,,,,,,,,,139.75764260000142,0.007642600001418032,None,175.41089150000334,175.41089150000334,175.41089150000334,175.41089150000334,175.41089150000334,175.41089150000334,175.41089150000334,175.41089150000334,175.41089150000334,175.41089150000334,,006,P022,2025_May_13_1740,ConditionRich,2021.2.3,59.92581184685135,
140.0,140.75,26,0.75,Stimuli/P016/things_face_08s.jpg,0,0,0.0,0,242,242,242,,,,,,,,,,,,,140.0228569000028,0.02285690000280738,None,175.6611006000021,175.6611006000021,175.6611006000021,175.6611006000021,175.6611006000021,175.6611006000021,175.6611006000021,175.6611006000021,175.6611006000021,175.6611006000021,,006,P022,2025_May_13_1740,ConditionRich,2021.2.3,59.92581184685135,
140.75,141.0,41,0.0,Stimuli/Blank.png,0,0,0.0,0,243,243,243,,,,,,,,,,,,,140.7562386999998,0.006238699999812525,None,176.39513579999766,176.39513579999766,176.39513579999766,176.39513579999766,176.39513579999766,176.39513579999766,176.39513579999766,176.39513579999766,176.39513579999766,176.39513579999766,,006,P022,2025_May_13_1740,ConditionRich,2021.2.3,59.92581184685135,
141.0,141.75,26,0.75,Stimuli/P016/things_face_08s.jpg,0,0,0.0,0,244,244,244,,,,,,,,,,,,,141.00721200000407,0.007212000004074071,None,176.64531620000344,176.64531620000344,176.64531620000344,176.64531620000344,176.64531620000344,176.64531620000344,176.64531620000344,176.64531620000344,176.64531620000344,176.64531620000344,,006,P022,2025_May_13_1740,ConditionRich,2021.2.3,59.92581184685135,
141.75,142.0,41,0.0,Stimuli/Blank.png,0,0,0.0,0,245,245,245,,,,,,,,,,,,,141.7571689000033,0.007168900003307499,None,177.39596660000097,177.39596660000097,177.39596660000097,177.39596660000097,177.39596660000097,177.39596660000097,177.39596660000097,177.39596660000097,177.39596660000097,177.39596660000097,,006,P022,2025_May_13_1740,ConditionRich,2021.2.3,59.92581184685135,
142.0,142.75,26,0.75,Stimuli/P016/things_face_08s.jpg,0,0,0.0,0,246,246,246,,,,,,,,,,,,,142.00808359999792,0.00808359999791719,None,177.64618730000075,177.64618730000075,177.64618730000075,177.64618730000075,177.64618730000075,177.64618730000075,177.64618730000075,177.64618730000075,177.64618730000075,177.64618730000075,,006,P022,2025_May_13_1740,ConditionRich,2021.2.3,59.92581184685135,
142.75,143.0,41,0.0,Stimuli/Blank.png,0,0,0.0,0,247,247,247,,,,,,,,,,,,,142.758845999997,0.00884599999699276,None,178.3968451999972,178.3968451999972,178.3968451999972,178.3968451999972,178.3968451999972,178.3968451999972,178.3968451999972,178.3968451999972,178.3968451999972,178.3968451999972,,006,P022,2025_May_13_1740,ConditionRich,2021.2.3,59.92581184685135,
143.0,143.75,26,0.75,Stimuli/P016/things_face_08s.jpg,0,0,0.0,0,248,248,248,,,,,,,,,,,,,143.008943300003,0.008943300003011245,None,178.64707949999865,178.64707949999865,178.64707949999865,178.64707949999865,178.64707949999865,178.64707949999865,178.64707949999865,178.64707949999865,178.64707949999865,178.64707949999865,,006,P022,2025_May_13_1740,ConditionRich,2021.2.3,59.92581184685135,
143.75,144.0,41,0.0,Stimuli/Blank.png,0,0,0.0,0,249,249,249,,,,,,,,,,,,,143.75972799999727,0.009727999997267034,None,179.39774380000017,179.39774380000017,179.39774380000017,179.39774380000017,179.39774380000017,179.39774380000017,179.39774380000017,179.39774380000017,179.39774380000017,179.39774380000017,,006,P022,2025_May_13_1740,ConditionRich,2021.2.3,59.92581184685135,
144.0,144.75,2,0.75,Stimuli/P016/sun_agzfkftryitnqpxc.jpg,0,0,0.0,0,250,250,250,,,,,,,,,,,,,144.00978120000218,0.009781200002180412,None,179.64796039999783,179.64796039999783,179.64796039999783,179.64796039999783,179.64796039999783,179.64796039999783,179.64796039999783,179.64796039999783,179.64796039999783,179.64796039999783,,006,P022,2025_May_13_1740,ConditionRich,2021.2.3,59.92581184685135,
144.75,145.0,41,0.0,Stimuli/Blank.png,0,0,0.0,0,251,251,251,,,,,,,,,,,,,144.76005180000357,0.010051800003566314,None,180.39859160000196,180.39859160000196,180.39859160000196,180.39859160000196,180.39859160000196,180.39859160000196,180.39859160000196,180.39859160000196,180.39859160000196,180.39859160000196,,006,P022,2025_May_13_1740,ConditionRich,2021.2.3,59.92581184685135,
145.0,145.75,2,0.75,Stimuli/P016/sun_agzfkftryitnqpxc.jpg,0,0,0.0,0,252,252,252,,,,,,,,,,,,,145.01123260000168,0.011232600001676474,None,180.665499499999,180.665499499999,180.665499499999,180.665499499999,180.665499499999,180.665499499999,180.665499499999,180.665499499999,180.665499499999,180.665499499999,,006,P022,2025_May_13_1740,ConditionRich,2021.2.3,59.92581184685135,
145.75,146.0,41,0.0,Stimuli/Blank.png,0,0,0.0,0,253,253,253,,,,,,,,,,,,,145.77812870000344,0.02812870000343537,None,181.41619619999983,181.41619619999983,181.41619619999983,181.41619619999983,181.41619619999983,181.41619619999983,181.41619619999983,181.41619619999983,181.41619619999983,181.41619619999983,,006,P022,2025_May_13_1740,ConditionRich,2021.2.3,59.92581184685135,
146.0,146.75,2,0.75,Stimuli/P016/sun_agzfkftryitnqpxc.jpg,0,0,0.0,0,254,254,254,,,,,,,,,,,,,146.01305649999995,0.013056499999947846,None,181.6664055000001,181.6664055000001,181.6664055000001,181.6664055000001,181.6664055000001,181.6664055000001,181.6664055000001,181.6664055000001,181.6664055000001,181.6664055000001,,006,P022,2025_May_13_1740,ConditionRich,2021.2.3,59.92581184685135,
146.75,147.0,41,0.0,Stimuli/Blank.png,0,0,0.0,0,255,255,255,,,,,,,,,,,,,146.77925739999773,0.029257399997732136,None,182.41707190000307,182.41707190000307,182.41707190000307,182.41707190000307,182.41707190000307,182.41707190000307,182.41707190000307,182.41707190000307,182.41707190000307,182.41707190000307,,006,P022,2025_May_13_1740,ConditionRich,2021.2.3,59.92581184685135,
147.0,147.75,2,0.75,Stimuli/P016/sun_agzfkftryitnqpxc.jpg,0,0,0.0,0,256,256,256,,,,,,,,,,,,,147.01192289999744,0.011922899997443892,None,182.65061830000195,182.65061830000195,182.65061830000195,182.65061830000195,182.65061830000195,182.65061830000195,182.65061830000195,182.65061830000195,182.65061830000195,182.65061830000195,,006,P022,2025_May_13_1740,ConditionRich,2021.2.3,59.92581184685135,
147.75,148.0,41,0.0,Stimuli/Blank.png,0,0,0.0,0,257,257,257,,,,,,,,,,,,,147.76343649999762,0.013436499997624196,None,183.40129400000296,183.40129400000296,183.40129400000296,183.40129400000296,183.40129400000296,183.40129400000296,183.40129400000296,183.40129400000296,183.40129400000296,183.40129400000296,,006,P022,2025_May_13_1740,ConditionRich,2021.2.3,59.92581184685135,
148.0,148.75,29,0.75,Stimuli/P016/things_mouse1_08s.jpg,0,0,0.0,0,258,258,258,,,,,,,,,,,,,148.01265630000125,0.01265630000125384,None,183.65149550000206,183.65149550000206,183.65149550000206,183.65149550000206,183.65149550000206,183.65149550000206,183.65149550000206,183.65149550000206,183.65149550000206,183.65149550000206,,006,P022,2025_May_13_1740,ConditionRich,2021.2.3,59.92581184685135,
148.75,149.0,41,0.0,Stimuli/Blank.png,0,0,0.0,0,259,259,259,,,,,,,,,,,,,148.76375079999707,0.013750799997069407,None,184.4021653000018,184.4021653000018,184.4021653000018,184.4021653000018,184.4021653000018,184.4021653000018,184.4021653000018,184.4021653000018,184.4021653000018,184.4021653000018,,006,P022,2025_May_13_1740,ConditionRich,2021.2.3,59.92581184685135,
149.0,149.75,29,0.75,Stimuli/P016/things_mouse1_08s.jpg,0,0,0.0,0,260,260,260,,,,,,,,,,,,,149.01369010000053,0.013690100000530947,None,184.65237920000072,184.65237920000072,184.65237920000072,184.65237920000072,184.65237920000072,184.65237920000072,184.65237920000072,184.65237920000072,184.65237920000072,184.65237920000072,,006,P022,2025_May_13_1740,ConditionRich,2021.2.3,59.92581184685135,
149.75,150.0,41,0.0,Stimuli/Blank.png,0,0,0.0,0,261,261,261,,,,,,,,,,,,,149.76511580000079,0.015115800000785384,None,185.40313679999963,185.40313679999963,185.40313679999963,185.40313679999963,185.40313679999963,185.40313679999963,185.40313679999963,185.40313679999963,185.40313679999963,185.40313679999963,,006,P022,2025_May_13_1740,ConditionRich,2021.2.3,59.92581184685135,
