eventStartTime,eventEndTime,eventCond,imSize,imFile,responseEvent,fixRespStart,fixRespEnd,Events.thisRepN,Events.thisTrialN,Events.thisN,Events.thisIndex,Instructions.started,Instructions.stopped,participantReadyResponse.keys,participantReadyResponse.rt,participantReadyResponse.started,participantReadyResponse.stopped,startWaitforTrigger,triggerResponse.keys,triggerResponse.rt,triggerResponse.started,triggerResponse.stopped,globalTimer,actualStartTime,startTimingDiff,participantResponse.keys,participantResponse.started,participantResponse.stopped,image.started,image.stopped,fixationOutside.started,fixationOutside.stopped,fixationResponse.started,fixationResponse.stopped,fixationInside.started,fixationInside.stopped,participantResponse.rt,session,participant,date,expName,psychopyVersion,frameRate,
,,,,,,,,,,,,10.344822699997167,None,1,7.616144599996915,10.344822699997167,None,,,,,,,,,,,,,,,,,,,,,007,P022,2025_May_13_1755,ConditionRich,2021.2.3,59.9241599829138,
,,,,,,,,,,,,,,,,,,17.97418800000014,5,13.531724699998449,17.98712909999449,None,,,,,,,,,,,,,,,,007,P022,2025_May_13_1755,ConditionRich,2021.2.3,59.9241599829138,
0.0,4.0,0,0.0,Stimuli/Blank.png,0,0.0,0.0,0,0,0,0,,,,,,,,,,,,31.53594239999802,0.03381029999582097,0.03381029999582097,None,31.582539299997734,None,31.582539299997734,None,31.582539299997734,None,31.582539299997734,31.582539299997734,31.582539299997734,None,,007,P022,2025_May_13_1755,ConditionRich,2021.2.3,59.9241599829138,
4.0,4.75,33,0.75,Stimuli/P016/things_raccoon_08n.jpg,0,0.0,0.0,0,1,1,1,,,,,,,,,,,,,4.006365999994159,0.0063659999941592105,None,35.56971540000086,35.56971540000086,35.56971540000086,35.56971540000086,35.56971540000086,35.56971540000086,35.56971540000086,35.56971540000086,35.56971540000086,35.56971540000086,,007,P022,2025_May_13_1755,ConditionRich,2021.2.3,59.9241599829138,
4.75,8.0,41,0.0,Stimuli/Blank.png,0,0.0,0.0,0,2,2,2,,,,,,,,,,,,,4.769578599996748,0.01957859999674838,None,36.320209099998465,36.320209099998465,36.320209099998465,36.320209099998465,36.320209099998465,36.320209099998465,36.320209099998465,36.320209099998465,36.320209099998465,36.320209099998465,,007,P022,2025_May_13_1755,ConditionRich,2021.2.3,59.9241599829138,
8.0,8.75,39,0.75,Stimuli/P016/things_window_08s.jpg,0,0.0,0.0,0,3,3,3,,,,,,,,,,,,,8.005654699998558,0.005654699998558499,None,39.57289079999464,39.57289079999464,39.57289079999464,39.57289079999464,39.57289079999464,39.57289079999464,39.57289079999464,39.57289079999464,39.57289079999464,39.57289079999464,,007,P022,2025_May_13_1755,ConditionRich,2021.2.3,59.9241599829138,
8.75,12.0,41,0.0,Stimuli/Blank.png,0,0.0,0.0,0,4,4,4,,,,,,,,,,,,,8.773640100000193,0.023640100000193343,None,40.32353879999573,40.32353879999573,40.32353879999573,40.32353879999573,40.32353879999573,40.32353879999573,40.32353879999573,40.32353879999573,40.32353879999573,40.32353879999573,,007,P022,2025_May_13_1755,ConditionRich,2021.2.3,59.9241599829138,
12.0,12.75,34,0.75,Stimuli/P016/things_shower_cap_08s.jpg,0,0.0,0.0,0,5,5,5,,,,,,,,,,,,,12.009903199999826,0.009903199999826029,None,43.559735299997556,43.559735299997556,43.559735299997556,43.559735299997556,43.559735299997556,43.559735299997556,43.559735299997556,43.559735299997556,43.559735299997556,43.559735299997556,,007,P022,2025_May_13_1755,ConditionRich,2021.2.3,59.9241599829138,
12.75,16.0,41,0.0,Stimuli/Blank.png,0,0.0,0.0,0,6,6,6,,,,,,,,,,,,,12.75995089999924,0.009950899999239482,None,44.310396100001526,44.310396100001526,44.310396100001526,44.310396100001526,44.310396100001526,44.310396100001526,44.310396100001526,44.310396100001526,44.310396100001526,44.310396100001526,,007,P022,2025_May_13_1755,ConditionRich,2021.2.3,59.9241599829138,
16.0,16.75,14,0.75,Stimuli/P016/sun_bpvmkbyglkraoxhh.jpg,0,0.0,0.0,0,7,7,7,,,,,,,,,,,,,16.01280549999501,0.012805499995010905,None,47.56327489999967,47.56327489999967,47.56327489999967,47.56327489999967,47.56327489999967,47.56327489999967,47.56327489999967,47.56327489999967,47.56327489999967,47.56327489999967,,007,P022,2025_May_13_1755,ConditionRich,2021.2.3,59.9241599829138,
16.75,20.0,41,0.0,Stimuli/Blank.png,1,1.25,2.0,0,8,8,8,,,,,,,,,,,,,16.763531999997213,0.013531999997212552,1,48.31390999999712,48.31390999999712,48.31390999999712,48.31390999999712,48.31390999999712,48.31390999999712,49.54856309999741,50.2990273999967,48.31390999999712,48.31390999999712,1.8040230999977211,007,P022,2025_May_13_1755,ConditionRich,2021.2.3,59.9241599829138,
20.0,20.75,11,0.75,Stimuli/P016/sun_bnwmcjuinqbdsbho.jpg,0,0.0,0.0,0,9,9,9,,,,,,,,,,,,,19.99978900000133,-0.00021099999867146835,None,51.55013269999472,51.55013269999472,51.55013269999472,51.55013269999472,51.55013269999472,51.55013269999472,51.55013269999472,51.55013269999472,51.55013269999472,51.55013269999472,,007,P022,2025_May_13_1755,ConditionRich,2021.2.3,59.9241599829138,
20.75,24.0,41,0.0,Stimuli/Blank.png,0,0.0,0.0,0,10,10,10,,,,,,,,,,,,,20.75107019999996,0.0010701999999582767,None,52.300795399998606,52.300795399998606,52.300795399998606,52.300795399998606,52.300795399998606,52.300795399998606,52.300795399998606,52.300795399998606,52.300795399998606,52.300795399998606,,007,P022,2025_May_13_1755,ConditionRich,2021.2.3,59.9241599829138,
24.0,24.75,12,0.75,Stimuli/P016/sun_boffixsnbbloarty.jpg,0,0.0,0.0,0,11,11,11,,,,,,,,,,,,,24.006477700000687,0.006477700000687037,None,55.57041559999925,55.57041559999925,55.57041559999925,55.57041559999925,55.57041559999925,55.57041559999925,55.57041559999925,55.57041559999925,55.57041559999925,55.57041559999925,,007,P022,2025_May_13_1755,ConditionRich,2021.2.3,59.9241599829138,
24.75,28.0,41,0.0,Stimuli/Blank.png,0,0.0,0.0,0,12,12,12,,,,,,,,,,,,,24.77102069999819,0.02102069999818923,None,56.32100619999983,56.32100619999983,56.32100619999983,56.32100619999983,56.32100619999983,56.32100619999983,56.32100619999983,56.32100619999983,56.32100619999983,56.32100619999983,,007,P022,2025_May_13_1755,ConditionRich,2021.2.3,59.9241599829138,
28.0,28.75,35,0.75,Stimuli/P016/things_squid_08s.jpg,0,0.0,0.0,0,13,13,13,,,,,,,,,,,,,28.00678959999641,0.006789599996409379,None,59.57389449999755,59.57389449999755,59.57389449999755,59.57389449999755,59.57389449999755,59.57389449999755,59.57389449999755,59.57389449999755,59.57389449999755,59.57389449999755,,007,P022,2025_May_13_1755,ConditionRich,2021.2.3,59.9241599829138,
28.75,32.0,41,0.0,Stimuli/Blank.png,1,1.25,2.0,0,14,14,14,,,,,,,,,,,,,28.774482199994964,0.024482199994963594,1,60.3245517999967,60.3245517999967,60.3245517999967,60.3245517999967,60.3245517999967,60.3245517999967,61.558972099999664,62.309662599996955,60.3245517999967,60.3245517999967,1.7093413999973563,007,P022,2025_May_13_1755,ConditionRich,2021.2.3,59.9241599829138,
32.0,32.75,27,0.75,Stimuli/P016/things_girl_08s.jpg,0,0.0,0.0,0,15,15,15,,,,,,,,,,,,,32.01036409999506,0.010364099995058496,None,63.56073939999624,63.56073939999624,63.56073939999624,63.56073939999624,63.56073939999624,63.56073939999624,63.56073939999624,63.56073939999624,63.56073939999624,63.56073939999624,,007,P022,2025_May_13_1755,ConditionRich,2021.2.3,59.9241599829138,
32.75,36.0,41,0.0,Stimuli/Blank.png,1,2.25,3.0,0,16,16,16,,,,,,,,,,,,,32.761571600000025,0.011571600000024773,1,64.31141249999928,64.31141249999928,64.31141249999928,64.31141249999928,64.31141249999928,64.31141249999928,66.54671270000108,67.29737079999904,64.31141249999928,64.31141249999928,2.78327879999415,007,P022,2025_May_13_1755,ConditionRich,2021.2.3,59.9241599829138,
36.0,36.75,36,0.75,Stimuli/P016/things_streetlight_08s.jpg,0,0.0,0.0,0,17,17,17,,,,,,,,,,,,,36.014618399996834,0.014618399996834341,None,67.56430990000081,67.56430990000081,67.56430990000081,67.56430990000081,67.56430990000081,67.56430990000081,67.56430990000081,67.56430990000081,67.56430990000081,67.56430990000081,,007,P022,2025_May_13_1755,ConditionRich,2021.2.3,59.9241599829138,
36.75,40.0,41,0.0,Stimuli/Blank.png,0,0.0,0.0,0,18,18,18,,,,,,,,,,,,,36.76511670000036,0.01511670000036247,None,68.31496440000046,68.31496440000046,68.31496440000046,68.31496440000046,68.31496440000046,68.31496440000046,68.31496440000046,68.31496440000046,68.31496440000046,68.31496440000046,,007,P022,2025_May_13_1755,ConditionRich,2021.2.3,59.9241599829138,
40.0,40.75,19,0.75,Stimuli/P016/sun_bzhwvgrzvttqoexa.jpg,0,0.0,0.0,0,19,19,19,,,,,,,,,,,,,40.00066379999771,0.0006637999977101572,None,71.55113749999873,71.55113749999873,71.55113749999873,71.55113749999873,71.55113749999873,71.55113749999873,71.55113749999873,71.55113749999873,71.55113749999873,71.55113749999873,,007,P022,2025_May_13_1755,ConditionRich,2021.2.3,59.9241599829138,
40.75,44.0,41,0.0,Stimuli/Blank.png,0,0.0,0.0,0,20,20,20,,,,,,,,,,,,,40.754133399997954,0.004133399997954257,None,72.31848989999708,72.31848989999708,72.31848989999708,72.31848989999708,72.31848989999708,72.31848989999708,72.31848989999708,72.31848989999708,72.31848989999708,72.31848989999708,,007,P022,2025_May_13_1755,ConditionRich,2021.2.3,59.9241599829138,
44.0,44.75,32,0.75,Stimuli/P016/things_pheasant_08s.jpg,0,0.0,0.0,0,21,21,21,,,,,,,,,,,,,44.02152940000087,0.021529400000872556,None,75.58805569999822,75.58805569999822,75.58805569999822,75.58805569999822,75.58805569999822,75.58805569999822,75.58805569999822,75.58805569999822,75.58805569999822,75.58805569999822,,007,P022,2025_May_13_1755,ConditionRich,2021.2.3,59.9241599829138,
44.75,48.0,41,0.0,Stimuli/Blank.png,0,0.0,0.0,0,22,22,22,,,,,,,,,,,,,44.774112799997965,0.02411279999796534,None,76.33871579999686,76.33871579999686,76.33871579999686,76.33871579999686,76.33871579999686,76.33871579999686,76.33871579999686,76.33871579999686,76.33871579999686,76.33871579999686,,007,P022,2025_May_13_1755,ConditionRich,2021.2.3,59.9241599829138,
48.0,48.75,20,0.75,Stimuli/P016/sun_bzmxulijbnmshodq.jpg,0,0.0,0.0,0,23,23,23,,,,,,,,,,,,,48.02474969999457,0.02474969999457244,None,79.57489859999623,79.57489859999623,79.57489859999623,79.57489859999623,79.57489859999623,79.57489859999623,79.57489859999623,79.57489859999623,79.57489859999623,79.57489859999623,,007,P022,2025_May_13_1755,ConditionRich,2021.2.3,59.9241599829138,
48.75,52.0,41,0.0,Stimuli/Blank.png,0,0.0,0.0,0,24,24,24,,,,,,,,,,,,,48.75861279999663,0.008612799996626563,None,80.30887870000151,80.30887870000151,80.30887870000151,80.30887870000151,80.30887870000151,80.30887870000151,80.30887870000151,80.30887870000151,80.30887870000151,80.30887870000151,,007,P022,2025_May_13_1755,ConditionRich,2021.2.3,59.9241599829138,
52.0,52.75,2,0.75,Stimuli/P016/sun_agzfkftryitnqpxc.jpg,0,0.0,0.0,0,25,25,25,,,,,,,,,,,,,52.01134109999839,0.011341099998389836,None,83.56175329999678,83.56175329999678,83.56175329999678,83.56175329999678,83.56175329999678,83.56175329999678,83.56175329999678,83.56175329999678,83.56175329999678,83.56175329999678,,007,P022,2025_May_13_1755,ConditionRich,2021.2.3,59.9241599829138,
52.75,56.0,41,0.0,Stimuli/Blank.png,0,0.0,0.0,0,26,26,26,,,,,,,,,,,,,52.764240399999835,0.014240399999835063,None,84.32912370000122,84.32912370000122,84.32912370000122,84.32912370000122,84.32912370000122,84.32912370000122,84.32912370000122,84.32912370000122,84.32912370000122,84.32912370000122,,007,P022,2025_May_13_1755,ConditionRich,2021.2.3,59.9241599829138,
56.0,56.75,40,0.75,Stimuli/P016/things_woman_08s.jpg,0,0.0,0.0,0,27,27,27,,,,,,,,,,,,,56.015452599996934,0.015452599996933714,None,87.56529189999856,87.56529189999856,87.56529189999856,87.56529189999856,87.56529189999856,87.56529189999856,87.56529189999856,87.56529189999856,87.56529189999856,87.56529189999856,,007,P022,2025_May_13_1755,ConditionRich,2021.2.3,59.9241599829138,
56.75,60.0,41,0.0,Stimuli/Blank.png,0,0.0,0.0,0,28,28,28,,,,,,,,,,,,,56.74981190000108,-0.0001880999989225529,None,88.29928509999445,88.29928509999445,88.29928509999445,88.29928509999445,88.29928509999445,88.29928509999445,88.29928509999445,88.29928509999445,88.29928509999445,88.29928509999445,,007,P022,2025_May_13_1755,ConditionRich,2021.2.3,59.9241599829138,
60.0,60.75,15,0.75,Stimuli/P016/sun_bvfcijehgdsndfbg.jpg,0,0.0,0.0,0,29,29,29,,,,,,,,,,,,,60.00310660000105,0.0031066000010468997,None,91.56883969999762,91.56883969999762,91.56883969999762,91.56883969999762,91.56883969999762,91.56883969999762,91.56883969999762,91.56883969999762,91.56883969999762,91.56883969999762,,007,P022,2025_May_13_1755,ConditionRich,2021.2.3,59.9241599829138,
60.75,64.0,41,0.0,Stimuli/Blank.png,0,0.0,0.0,0,30,30,30,,,,,,,,,,,,,60.76891220000107,0.018912200001068413,None,92.31949570000143,92.31949570000143,92.31949570000143,92.31949570000143,92.31949570000143,92.31949570000143,92.31949570000143,92.31949570000143,92.31949570000143,92.31949570000143,,007,P022,2025_May_13_1755,ConditionRich,2021.2.3,59.9241599829138,
64.0,64.75,29,0.75,Stimuli/P016/things_mouse1_08s.jpg,0,0.0,0.0,0,31,31,31,,,,,,,,,,,,,64.00524289999885,0.005242899998847861,None,95.55574229999911,95.55574229999911,95.55574229999911,95.55574229999911,95.55574229999911,95.55574229999911,95.55574229999911,95.55574229999911,95.55574229999911,95.55574229999911,,007,P022,2025_May_13_1755,ConditionRich,2021.2.3,59.9241599829138,
64.75,68.0,41,0.0,Stimuli/Blank.png,0,0.0,0.0,0,32,32,32,,,,,,,,,,,,,64.75672589999886,0.006725899998855311,None,96.30634879999707,96.30634879999707,96.30634879999707,96.30634879999707,96.30634879999707,96.30634879999707,96.30634879999707,96.30634879999707,96.30634879999707,96.30634879999707,,007,P022,2025_May_13_1755,ConditionRich,2021.2.3,59.9241599829138,
68.0,68.75,25,0.75,Stimuli/P016/things_deer_08s.jpg,0,0.0,0.0,0,33,33,33,,,,,,,,,,,,,68.00917679999839,0.009176799998385832,None,99.55924469999445,99.55924469999445,99.55924469999445,99.55924469999445,99.55924469999445,99.55924469999445,99.55924469999445,99.55924469999445,99.55924469999445,99.55924469999445,,007,P022,2025_May_13_1755,ConditionRich,2021.2.3,59.9241599829138,
68.75,72.0,41,0.0,Stimuli/Blank.png,0,0.0,0.0,0,34,34,34,,,,,,,,,,,,,68.76033579999785,0.010335799997847062,None,100.30994379999902,100.30994379999902,100.30994379999902,100.30994379999902,100.30994379999902,100.30994379999902,100.30994379999902,100.30994379999902,100.30994379999902,100.30994379999902,,007,P022,2025_May_13_1755,ConditionRich,2021.2.3,59.9241599829138,
72.0,72.75,8,0.75,Stimuli/P016/sun_arldxotvfucvuudk.jpg,0,0.0,0.0,0,35,35,35,,,,,,,,,,,,,72.01228260000062,0.012282600000617094,None,103.5627811000013,103.5627811000013,103.5627811000013,103.5627811000013,103.5627811000013,103.5627811000013,103.5627811000013,103.5627811000013,103.5627811000013,103.5627811000013,,007,P022,2025_May_13_1755,ConditionRich,2021.2.3,59.9241599829138,
72.75,76.0,41,0.0,Stimuli/Blank.png,0,0.0,0.0,0,36,36,36,,,,,,,,,,,,,72.76286029999756,0.012860299997555558,None,104.31350279999606,104.31350279999606,104.31350279999606,104.31350279999606,104.31350279999606,104.31350279999606,104.31350279999606,104.31350279999606,104.31350279999606,104.31350279999606,,007,P022,2025_May_13_1755,ConditionRich,2021.2.3,59.9241599829138,
76.0,76.75,28,0.75,Stimuli/P016/things_latte_08s.jpg,0,0.0,0.0,0,37,37,37,,,,,,,,,,,,,76.01678369999718,0.016783699997176882,None,107.58300109999982,107.58300109999982,107.58300109999982,107.58300109999982,107.58300109999982,107.58300109999982,107.58300109999982,107.58300109999982,107.58300109999982,107.58300109999982,,007,P022,2025_May_13_1755,ConditionRich,2021.2.3,59.9241599829138,
76.75,80.0,41,0.0,Stimuli/Blank.png,0,0.0,0.0,0,38,38,38,,,,,,,,,,,,,76.77066919999925,0.020669199999247212,None,108.33367729999736,108.33367729999736,108.33367729999736,108.33367729999736,108.33367729999736,108.33367729999736,108.33367729999736,108.33367729999736,108.33367729999736,108.33367729999736,,007,P022,2025_May_13_1755,ConditionRich,2021.2.3,59.9241599829138,
80.0,80.75,13,0.75,Stimuli/P016/sun_bphvjnowixlryxot.jpg,0,0.0,0.0,0,39,39,39,,,,,,,,,,,,,80.02026769999793,0.020267699997930322,None,111.56984069999453,111.56984069999453,111.56984069999453,111.56984069999453,111.56984069999453,111.56984069999453,111.56984069999453,111.56984069999453,111.56984069999453,111.56984069999453,,007,P022,2025_May_13_1755,ConditionRich,2021.2.3,59.9241599829138,
80.75,84.0,41,0.0,Stimuli/Blank.png,1,2.25,3.0,0,40,40,40,,,,,,,,,,,,,80.75397769999836,0.00397769999835873,1,112.30382129999634,112.30382129999634,112.30382129999634,112.30382129999634,112.30382129999634,112.30382129999634,114.53913639999519,115.28980420000153,112.30382129999634,112.30382129999634,2.683911599997373,007,P022,2025_May_13_1755,ConditionRich,2021.2.3,59.9241599829138,
84.0,100.0,0,0.0,Stimuli/Blank.png,1,13.0,13.75,0,41,41,41,,,,,,,,,,,,,84.00642900000094,0.006429000000935048,1,115.5567052999977,115.5567052999977,115.5567052999977,115.5567052999977,115.5567052999977,115.5567052999977,128.53486149999662,129.28550189999805,115.5567052999977,115.5567052999977,13.396067199995741,007,P022,2025_May_13_1755,ConditionRich,2021.2.3,59.9241599829138,
100.0,100.75,5,0.75,Stimuli/P016/sun_ajgmxbrxdpmsaext.jpg,0,0.0,0.0,0,42,42,42,,,,,,,,,,,,,100.0042112999945,0.004211299994494766,None,131.55418110000028,131.55418110000028,131.55418110000028,131.55418110000028,131.55418110000028,131.55418110000028,131.55418110000028,131.55418110000028,131.55418110000028,131.55418110000028,,007,P022,2025_May_13_1755,ConditionRich,2021.2.3,59.9241599829138,
100.75,104.0,41,0.0,Stimuli/Blank.png,0,0.0,0.0,0,43,43,43,,,,,,,,,,,,,100.75503719999688,0.005037199996877462,None,132.3048587000012,132.3048587000012,132.3048587000012,132.3048587000012,132.3048587000012,132.3048587000012,132.3048587000012,132.3048587000012,132.3048587000012,132.3048587000012,,007,P022,2025_May_13_1755,ConditionRich,2021.2.3,59.9241599829138,
104.0,104.75,18,0.75,Stimuli/P016/sun_byavixgfuhzioilz.jpg,0,0.0,0.0,0,44,44,44,,,,,,,,,,,,,104.00831910000124,0.008319100001244806,None,135.5577181999979,135.5577181999979,135.5577181999979,135.5577181999979,135.5577181999979,135.5577181999979,135.5577181999979,135.5577181999979,135.5577181999979,135.5577181999979,,007,P022,2025_May_13_1755,ConditionRich,2021.2.3,59.9241599829138,
104.75,108.0,41,0.0,Stimuli/Blank.png,0,0.0,0.0,0,45,45,45,,,,,,,,,,,,,104.75854509999772,0.008545099997718353,None,136.30838999999833,136.30838999999833,136.30838999999833,136.30838999999833,136.30838999999833,136.30838999999833,136.30838999999833,136.30838999999833,136.30838999999833,136.30838999999833,,007,P022,2025_May_13_1755,ConditionRich,2021.2.3,59.9241599829138,
108.0,108.75,30,0.75,Stimuli/P016/things_ottoman_08s.jpg,0,0.0,0.0,0,46,46,46,,,,,,,,,,,,,108.01133259999915,0.011332599999150261,None,139.56125790000078,139.56125790000078,139.56125790000078,139.56125790000078,139.56125790000078,139.56125790000078,139.56125790000078,139.56125790000078,139.56125790000078,139.56125790000078,,007,P022,2025_May_13_1755,ConditionRich,2021.2.3,59.9241599829138,
108.75,112.0,41,0.0,Stimuli/Blank.png,0,0.0,0.0,0,47,47,47,,,,,,,,,,,,,108.7622687999974,0.012268799997400492,None,140.31205010000122,140.31205010000122,140.31205010000122,140.31205010000122,140.31205010000122,140.31205010000122,140.31205010000122,140.31205010000122,140.31205010000122,140.31205010000122,,007,P022,2025_May_13_1755,ConditionRich,2021.2.3,59.9241599829138,
112.0,112.75,3,0.75,Stimuli/P016/sun_aiogwnavezqxkzfg.jpg,0,0.0,0.0,0,48,48,48,,,,,,,,,,,,,112.01440719999664,0.014407199996639974,None,143.56476409999595,143.56476409999595,143.56476409999595,143.56476409999595,143.56476409999595,143.56476409999595,143.56476409999595,143.56476409999595,143.56476409999595,143.56476409999595,,007,P022,2025_May_13_1755,ConditionRich,2021.2.3,59.9241599829138,
112.75,116.0,41,0.0,Stimuli/Blank.png,0,0.0,0.0,0,49,49,49,,,,,,,,,,,,,112.76506990000053,0.015069900000526104,None,144.31545729999925,144.31545729999925,144.31545729999925,144.31545729999925,144.31545729999925,144.31545729999925,144.31545729999925,144.31545729999925,144.31545729999925,144.31545729999925,,007,P022,2025_May_13_1755,ConditionRich,2021.2.3,59.9241599829138,
116.0,116.75,31,0.75,Stimuli/P016/things_outlet_08s.jpg,0,0.0,0.0,0,50,50,50,,,,,,,,,,,,,116.00192129999778,0.0019212999977753498,None,147.55165259999922,147.55165259999922,147.55165259999922,147.55165259999922,147.55165259999922,147.55165259999922,147.55165259999922,147.55165259999922,147.55165259999922,147.55165259999922,,007,P022,2025_May_13_1755,ConditionRich,2021.2.3,59.9241599829138,
116.75,120.0,41,0.0,Stimuli/Blank.png,0,0.0,0.0,0,51,51,51,,,,,,,,,,,,,116.75167789999978,0.0016778999997768551,None,148.30232029999752,148.30232029999752,148.30232029999752,148.30232029999752,148.30232029999752,148.30232029999752,148.30232029999752,148.30232029999752,148.30232029999752,148.30232029999752,,007,P022,2025_May_13_1755,ConditionRich,2021.2.3,59.9241599829138,
120.0,120.75,17,0.75,Stimuli/P016/sun_bxhbltvqnpaciuzt.jpg,0,0.0,0.0,0,52,52,52,,,,,,,,,,,,,120.00513729999511,0.0051372999951126985,None,151.55519079999794,151.55519079999794,151.55519079999794,151.55519079999794,151.55519079999794,151.55519079999794,151.55519079999794,151.55519079999794,151.55519079999794,151.55519079999794,,007,P022,2025_May_13_1755,ConditionRich,2021.2.3,59.9241599829138,
120.75,124.0,41,0.0,Stimuli/Blank.png,0,0.0,0.0,0,53,53,53,,,,,,,,,,,,,120.7552680000008,0.0052680000007967465,None,152.3058693999992,152.3058693999992,152.3058693999992,152.3058693999992,152.3058693999992,152.3058693999992,152.3058693999992,152.3058693999992,152.3058693999992,152.3058693999992,,007,P022,2025_May_13_1755,ConditionRich,2021.2.3,59.9241599829138,
124.0,124.75,26,0.75,Stimuli/P016/things_face_08s.jpg,0,0.0,0.0,0,54,54,54,,,,,,,,,,,,,124.00916889999644,0.009168899996438995,None,155.55873379999684,155.55873379999684,155.55873379999684,155.55873379999684,155.55873379999684,155.55873379999684,155.55873379999684,155.55873379999684,155.55873379999684,155.55873379999684,,007,P022,2025_May_13_1755,ConditionRich,2021.2.3,59.9241599829138,
124.75,128.0,41,0.0,Stimuli/Blank.png,0,0.0,0.0,0,55,55,55,,,,,,,,,,,,,124.7597375999976,0.009737599997606594,None,156.30940220000048,156.30940220000048,156.30940220000048,156.30940220000048,156.30940220000048,156.30940220000048,156.30940220000048,156.30940220000048,156.30940220000048,156.30940220000048,,007,P022,2025_May_13_1755,ConditionRich,2021.2.3,59.9241599829138,
128.0,128.75,23,0.75,Stimuli/P016/things_boy_08s.jpg,0,0.0,0.0,0,56,56,56,,,,,,,,,,,,,128.01187850000133,0.011878500001330394,None,159.56226700000116,159.56226700000116,159.56226700000116,159.56226700000116,159.56226700000116,159.56226700000116,159.56226700000116,159.56226700000116,159.56226700000116,159.56226700000116,,007,P022,2025_May_13_1755,ConditionRich,2021.2.3,59.9241599829138,
128.75,132.0,41,0.0,Stimuli/Blank.png,0,0.0,0.0,0,57,57,57,,,,,,,,,,,,,128.76452559999598,0.014525599995977245,None,160.32962140000018,160.32962140000018,160.32962140000018,160.32962140000018,160.32962140000018,160.32962140000018,160.32962140000018,160.32962140000018,160.32962140000018,160.32962140000018,,007,P022,2025_May_13_1755,ConditionRich,2021.2.3,59.9241599829138,
132.0,132.75,6,0.75,Stimuli/P016/sun_akecfasimgpbqcnt.jpg,0,0.0,0.0,0,58,58,58,,,,,,,,,,,,,132.01596179999615,0.01596179999614833,None,163.56580469999608,163.56580469999608,163.56580469999608,163.56580469999608,163.56580469999608,163.56580469999608,163.56580469999608,163.56580469999608,163.56580469999608,163.56580469999608,,007,P022,2025_May_13_1755,ConditionRich,2021.2.3,59.9241599829138,
132.75,136.0,41,0.0,Stimuli/Blank.png,0,0.0,0.0,0,59,59,59,,,,,,,,,,,,,132.74999359999492,-6.400005077011883e-06,None,164.29979599999933,164.29979599999933,164.29979599999933,164.29979599999933,164.29979599999933,164.29979599999933,164.29979599999933,164.29979599999933,164.29979599999933,164.29979599999933,,007,P022,2025_May_13_1755,ConditionRich,2021.2.3,59.9241599829138,
136.0,136.75,4,0.75,Stimuli/P016/sun_aiwuqxdqzftsfyeg.jpg,0,0.0,0.0,0,60,60,60,,,,,,,,,,,,,136.00303770000028,0.0030377000002772547,None,167.55267309999908,167.55267309999908,167.55267309999908,167.55267309999908,167.55267309999908,167.55267309999908,167.55267309999908,167.55267309999908,167.55267309999908,167.55267309999908,,007,P022,2025_May_13_1755,ConditionRich,2021.2.3,59.9241599829138,
136.75,140.0,41,0.0,Stimuli/Blank.png,0,0.0,0.0,0,61,61,61,,,,,,,,,,,,,136.75269229999685,0.0026922999968519434,None,168.30337339999824,168.30337339999824,168.30337339999824,168.30337339999824,168.30337339999824,168.30337339999824,168.30337339999824,168.30337339999824,168.30337339999824,168.30337339999824,,007,P022,2025_May_13_1755,ConditionRich,2021.2.3,59.9241599829138,
140.0,140.75,38,0.75,Stimuli/P016/things_trumpet_08s.jpg,1,0.0,0.75,0,62,62,62,,,,,,,,,,,,,140.00595299999986,0.005952999999863096,1,171.55627939999977,171.55627939999977,171.55627939999977,171.55627939999977,171.55627939999977,171.55627939999977,171.55627939999977,172.29018769999675,171.55627939999977,171.55627939999977,0.4584735999960685,007,P022,2025_May_13_1755,ConditionRich,2021.2.3,59.9241599829138,
140.75,144.0,41,0.0,Stimuli/Blank.png,0,0.0,0.0,0,63,63,63,,,,,,,,,,,,,140.75629249999474,0.006292499994742684,None,172.3068712999957,172.3068712999957,172.3068712999957,172.3068712999957,172.3068712999957,172.3068712999957,172.3068712999957,172.3068712999957,172.3068712999957,172.3068712999957,,007,P022,2025_May_13_1755,ConditionRich,2021.2.3,59.9241599829138,
144.0,144.75,10,0.75,Stimuli/P016/sun_bfojpvrlsrtfyzio.jpg,0,0.0,0.0,0,64,64,64,,,,,,,,,,,,,144.0107468999995,0.010746899999503512,None,175.55974729999434,175.55974729999434,175.55974729999434,175.55974729999434,175.55974729999434,175.55974729999434,175.55974729999434,175.55974729999434,175.55974729999434,175.55974729999434,,007,P022,2025_May_13_1755,ConditionRich,2021.2.3,59.9241599829138,
144.75,148.0,41,0.0,Stimuli/Blank.png,0,0.0,0.0,0,65,65,65,,,,,,,,,,,,,144.76039689999743,0.01039689999743132,None,176.31040850000136,176.31040850000136,176.31040850000136,176.31040850000136,176.31040850000136,176.31040850000136,176.31040850000136,176.31040850000136,176.31040850000136,176.31040850000136,,007,P022,2025_May_13_1755,ConditionRich,2021.2.3,59.9241599829138,
148.0,148.75,9,0.75,Stimuli/P016/sun_bbdgftzhpkaklkll.jpg,0,0.0,0.0,0,66,66,66,,,,,,,,,,,,,148.0129894999991,0.012989499999093823,None,179.56329529999493,179.56329529999493,179.56329529999493,179.56329529999493,179.56329529999493,179.56329529999493,179.56329529999493,179.56329529999493,179.56329529999493,179.56329529999493,,007,P022,2025_May_13_1755,ConditionRich,2021.2.3,59.9241599829138,
148.75,152.0,41,0.0,Stimuli/Blank.png,0,0.0,0.0,0,67,67,67,,,,,,,,,,,,,148.76407849999669,0.014078499996685423,None,180.3139430999945,180.3139430999945,180.3139430999945,180.3139430999945,180.3139430999945,180.3139430999945,180.3139430999945,180.3139430999945,180.3139430999945,180.3139430999945,,007,P022,2025_May_13_1755,ConditionRich,2021.2.3,59.9241599829138,
152.0,152.75,24,0.75,Stimuli/P016/things_bunkbed_08s.jpg,0,0.0,0.0,0,68,68,68,,,,,,,,,,,,,151.99987329999567,-0.00012670000432990491,None,183.55013379999582,183.55013379999582,183.55013379999582,183.55013379999582,183.55013379999582,183.55013379999582,183.55013379999582,183.55013379999582,183.55013379999582,183.55013379999582,,007,P022,2025_May_13_1755,ConditionRich,2021.2.3,59.9241599829138,
152.75,156.0,41,0.0,Stimuli/Blank.png,1,1.25,2.0,0,69,69,69,,,,,,,,,,,,,152.75030680000054,0.0003068000005441718,1,184.30080779999844,184.30080779999844,184.30080779999844,184.30080779999844,184.30080779999844,184.30080779999844,185.53526129999955,186.28600039999583,184.30080779999844,184.30080779999844,1.6742234999983339,007,P022,2025_May_13_1755,ConditionRich,2021.2.3,59.9241599829138,
156.0,156.75,22,0.75,Stimuli/P016/things_baby_08s.jpg,0,0.0,0.0,0,70,70,70,,,,,,,,,,,,,156.00389580000046,0.003895800000464078,None,187.5536815000014,187.5536815000014,187.5536815000014,187.5536815000014,187.5536815000014,187.5536815000014,187.5536815000014,187.5536815000014,187.5536815000014,187.5536815000014,,007,P022,2025_May_13_1755,ConditionRich,2021.2.3,59.9241599829138,
156.75,160.0,41,0.0,Stimuli/Blank.png,0,0.0,0.0,0,71,71,71,,,,,,,,,,,,,156.7547482999944,0.0047482999943895265,None,188.3043456000014,188.3043456000014,188.3043456000014,188.3043456000014,188.3043456000014,188.3043456000014,188.3043456000014,188.3043456000014,188.3043456000014,188.3043456000014,,007,P022,2025_May_13_1755,ConditionRich,2021.2.3,59.9241599829138,
160.0,160.75,7,0.75,Stimuli/P016/sun_aqdfrmtvewaapuqs.jpg,0,0.0,0.0,0,72,72,72,,,,,,,,,,,,,160.00673239999742,0.006732399997417815,None,191.57391039999493,191.57391039999493,191.57391039999493,191.57391039999493,191.57391039999493,191.57391039999493,191.57391039999493,191.57391039999493,191.57391039999493,191.57391039999493,,007,P022,2025_May_13_1755,ConditionRich,2021.2.3,59.9241599829138,
160.75,164.0,41,0.0,Stimuli/Blank.png,1,0.25,1.0,0,73,73,73,,,,,,,,,,,,,160.7740948999999,0.024094899999909103,1,192.3245711999989,192.3245711999989,192.3245711999989,192.3245711999989,192.3245711999989,192.3245711999989,192.55813249999483,193.30877199999668,192.3245711999989,192.3245711999989,0.7103655000028084,007,P022,2025_May_13_1755,ConditionRich,2021.2.3,59.9241599829138,
164.0,164.75,21,0.75,Stimuli/P016/things_arch_08s.jpg,0,0.0,0.0,0,74,74,74,,,,,,,,,,,,,164.0102681999997,0.0102681999997003,None,195.56075569999666,195.56075569999666,195.56075569999666,195.56075569999666,195.56075569999666,195.56075569999666,195.56075569999666,195.56075569999666,195.56075569999666,195.56075569999666,,007,P022,2025_May_13_1755,ConditionRich,2021.2.3,59.9241599829138,
164.75,168.0,41,0.0,Stimuli/Blank.png,0,0.0,0.0,0,75,75,75,,,,,,,,,,,,,164.76084830000036,0.010848300000361633,None,196.31138619999547,196.31138619999547,196.31138619999547,196.31138619999547,196.31138619999547,196.31138619999547,196.31138619999547,196.31138619999547,196.31138619999547,196.31138619999547,,007,P022,2025_May_13_1755,ConditionRich,2021.2.3,59.9241599829138,
168.0,168.75,16,0.75,Stimuli/P016/sun_bwhuwxazfqwuqhik.jpg,0,0.0,0.0,0,76,76,76,,,,,,,,,,,,,168.0144377999968,0.014437799996812828,None,199.56431029999658,199.56431029999658,199.56431029999658,199.56431029999658,199.56431029999658,199.56431029999658,199.56431029999658,199.56431029999658,199.56431029999658,199.56431029999658,,007,P022,2025_May_13_1755,ConditionRich,2021.2.3,59.9241599829138,
168.75,172.0,41,0.0,Stimuli/Blank.png,0,0.0,0.0,0,77,77,77,,,,,,,,,,,,,168.7649758999978,0.014975899997807574,None,200.31495580000046,200.31495580000046,200.31495580000046,200.31495580000046,200.31495580000046,200.31495580000046,200.31495580000046,200.31495580000046,200.31495580000046,200.31495580000046,,007,P022,2025_May_13_1755,ConditionRich,2021.2.3,59.9241599829138,
172.0,172.75,37,0.75,Stimuli/P016/things_swizzle_stick_08s.jpg,0,0.0,0.0,0,78,78,78,,,,,,,,,,,,,172.00146929999755,0.001469299997552298,None,203.5678465999954,203.5678465999954,203.5678465999954,203.5678465999954,203.5678465999954,203.5678465999954,203.5678465999954,203.5678465999954,203.5678465999954,203.5678465999954,,007,P022,2025_May_13_1755,ConditionRich,2021.2.3,59.9241599829138,
172.75,176.0,41,0.0,Stimuli/Blank.png,1,1.25,2.0,0,79,79,79,,,,,,,,,,,,,172.76862889999757,0.018628899997565895,1,204.31849469999725,204.31849469999725,204.31849469999725,204.31849469999725,204.31849469999725,204.31849469999725,205.55298490000132,206.30358059999708,204.31849469999725,204.31849469999725,1.65129490000254,007,P022,2025_May_13_1755,ConditionRich,2021.2.3,59.9241599829138,
176.0,176.75,1,0.75,Stimuli/P016/sun_aacpzgqrortyhyss.jpg,0,0.0,0.0,0,80,80,80,,,,,,,,,,,,,176.00465479999548,0.004654799995478243,None,207.55469509999966,207.55469509999966,207.55469509999966,207.55469509999966,207.55469509999966,207.55469509999966,207.55469509999966,207.55469509999966,207.55469509999966,207.55469509999966,,007,P022,2025_May_13_1755,ConditionRich,2021.2.3,59.9241599829138,
176.75,180.0,41,0.0,Stimuli/Blank.png,0,0.0,0.0,0,81,81,81,,,,,,,,,,,,,176.75478559999465,0.004785599994647782,None,208.3053602,208.3053602,208.3053602,208.3053602,208.3053602,208.3053602,208.3053602,208.3053602,208.3053602,208.3053602,,007,P022,2025_May_13_1755,ConditionRich,2021.2.3,59.9241599829138,
180.0,196.0,0,0.0,Stimuli/Blank.png,1,13.0,13.75,0,82,82,82,,,,,,,,,,,,,180.00794289999612,0.007942899996123742,1,211.55832720000035,211.55832720000035,211.55832720000035,211.55832720000035,211.55832720000035,211.55832720000035,224.53636209999968,225.28707449999638,211.55832720000035,211.55832720000035,13.613387899997178,007,P022,2025_May_13_1755,ConditionRich,2021.2.3,59.9241599829138,
196.0,196.75,35,0.75,Stimuli/P016/things_squid_08s.jpg,0,0.0,0.0,0,83,83,83,,,,,,,,,,,,,196.00594830000045,0.005948300000454765,None,227.55570749999606,227.55570749999606,227.55570749999606,227.55570749999606,227.55570749999606,227.55570749999606,227.55570749999606,227.55570749999606,227.55570749999606,227.55570749999606,,007,P022,2025_May_13_1755,ConditionRich,2021.2.3,59.9241599829138,
196.75,200.0,41,0.0,Stimuli/Blank.png,0,0.0,0.0,0,84,84,84,,,,,,,,,,,,,196.7558091999963,0.005809199996292591,None,228.3063783999969,228.3063783999969,228.3063783999969,228.3063783999969,228.3063783999969,228.3063783999969,228.3063783999969,228.3063783999969,228.3063783999969,228.3063783999969,,007,P022,2025_May_13_1755,ConditionRich,2021.2.3,59.9241599829138,
200.0,200.75,21,0.75,Stimuli/P016/things_arch_08s.jpg,0,0.0,0.0,0,85,85,85,,,,,,,,,,,,,200.0098324999999,0.009832499999902211,None,231.57594789999712,231.57594789999712,231.57594789999712,231.57594789999712,231.57594789999712,231.57594789999712,231.57594789999712,231.57594789999712,231.57594789999712,231.57594789999712,,007,P022,2025_May_13_1755,ConditionRich,2021.2.3,59.9241599829138,
200.75,204.0,41,0.0,Stimuli/Blank.png,1,2.25,3.0,0,86,86,86,,,,,,,,,,,,,200.77684719999525,0.02684719999524532,1,232.3266747999951,232.3266747999951,232.3266747999951,232.3266747999951,232.3266747999951,232.3266747999951,234.5619488999946,235.31257090000145,232.3266747999951,232.3266747999951,2.6690493000060087,007,P022,2025_May_13_1755,ConditionRich,2021.2.3,59.9241599829138,
204.0,204.75,18,0.75,Stimuli/P016/sun_byavixgfuhzioilz.jpg,0,0.0,0.0,0,87,87,87,,,,,,,,,,,,,204.01465989999997,0.014659899999969639,None,235.57947549999517,235.57947549999517,235.57947549999517,235.57947549999517,235.57947549999517,235.57947549999517,235.57947549999517,235.57947549999517,235.57947549999517,235.57947549999517,,007,P022,2025_May_13_1755,ConditionRich,2021.2.3,59.9241599829138,
204.75,208.0,41,0.0,Stimuli/Blank.png,1,1.25,2.0,0,88,88,88,,,,,,,,,,,,,204.77962199999456,0.02962199999456061,1,236.3301261000015,236.3301261000015,236.3301261000015,236.3301261000015,236.3301261000015,236.3301261000015,237.56454600000143,238.31530180000118,236.3301261000015,236.3301261000015,1.6826350999981514,007,P022,2025_May_13_1755,ConditionRich,2021.2.3,59.9241599829138,
208.0,208.75,40,0.75,Stimuli/P016/things_woman_08s.jpg,0,0.0,0.0,0,89,89,89,,,,,,,,,,,,,207.99955889999546,-0.0004411000045365654,None,239.54964340000151,239.54964340000151,239.54964340000151,239.54964340000151,239.54964340000151,239.54964340000151,239.54964340000151,239.54964340000151,239.54964340000151,239.54964340000151,,007,P022,2025_May_13_1755,ConditionRich,2021.2.3,59.9241599829138,
208.75,212.0,41,0.0,Stimuli/Blank.png,0,0.0,0.0,0,90,90,90,,,,,,,,,,,,,208.74968739999895,-0.00031260000105248764,None,240.3003008999949,240.3003008999949,240.3003008999949,240.3003008999949,240.3003008999949,240.3003008999949,240.3003008999949,240.3003008999949,240.3003008999949,240.3003008999949,,007,P022,2025_May_13_1755,ConditionRich,2021.2.3,59.9241599829138,
212.0,212.75,11,0.75,Stimuli/P016/sun_bnwmcjuinqbdsbho.jpg,0,0.0,0.0,0,91,91,91,,,,,,,,,,,,,212.00489649999508,0.004896499995084014,None,243.5698698999986,243.5698698999986,243.5698698999986,243.5698698999986,243.5698698999986,243.5698698999986,243.5698698999986,243.5698698999986,243.5698698999986,243.5698698999986,,007,P022,2025_May_13_1755,ConditionRich,2021.2.3,59.9241599829138,
212.75,216.0,41,0.0,Stimuli/Blank.png,0,0.0,0.0,0,92,92,92,,,,,,,,,,,,,212.7709551999942,0.02095519999420503,None,244.32051969999884,244.32051969999884,244.32051969999884,244.32051969999884,244.32051969999884,244.32051969999884,244.32051969999884,244.32051969999884,244.32051969999884,244.32051969999884,,007,P022,2025_May_13_1755,ConditionRich,2021.2.3,59.9241599829138,
216.0,216.75,13,0.75,Stimuli/P016/sun_bphvjnowixlryxot.jpg,0,0.0,0.0,0,93,93,93,,,,,,,,,,,,,216.00937639999756,0.009376399997563567,None,247.57340439999825,247.57340439999825,247.57340439999825,247.57340439999825,247.57340439999825,247.57340439999825,247.57340439999825,247.57340439999825,247.57340439999825,247.57340439999825,,007,P022,2025_May_13_1755,ConditionRich,2021.2.3,59.9241599829138,
216.75,220.0,41,0.0,Stimuli/Blank.png,0,0.0,0.0,0,94,94,94,,,,,,,,,,,,,216.77431049999723,0.024310499997227453,None,248.32406980000087,248.32406980000087,248.32406980000087,248.32406980000087,248.32406980000087,248.32406980000087,248.32406980000087,248.32406980000087,248.32406980000087,248.32406980000087,,007,P022,2025_May_13_1755,ConditionRich,2021.2.3,59.9241599829138,
220.0,220.75,1,0.75,Stimuli/P016/sun_aacpzgqrortyhyss.jpg,0,0.0,0.0,0,95,95,95,,,,,,,,,,,,,220.0104105999999,0.010410599999886472,None,251.56025260000024,251.56025260000024,251.56025260000024,251.56025260000024,251.56025260000024,251.56025260000024,251.56025260000024,251.56025260000024,251.56025260000024,251.56025260000024,,007,P022,2025_May_13_1755,ConditionRich,2021.2.3,59.9241599829138,
220.75,224.0,41,0.0,Stimuli/Blank.png,0,0.0,0.0,0,96,96,96,,,,,,,,,,,,,220.76118389999465,0.011183899994648527,None,252.31091559999913,252.31091559999913,252.31091559999913,252.31091559999913,252.31091559999913,252.31091559999913,252.31091559999913,252.31091559999913,252.31091559999913,252.31091559999913,,007,P022,2025_May_13_1755,ConditionRich,2021.2.3,59.9241599829138,
224.0,224.75,9,0.75,Stimuli/P016/sun_bbdgftzhpkaklkll.jpg,0,0.0,0.0,0,97,97,97,,,,,,,,,,,,,224.0140029999966,0.014002999996591825,None,255.56379749999905,255.56379749999905,255.56379749999905,255.56379749999905,255.56379749999905,255.56379749999905,255.56379749999905,255.56379749999905,255.56379749999905,255.56379749999905,,007,P022,2025_May_13_1755,ConditionRich,2021.2.3,59.9241599829138,
224.75,228.0,41,0.0,Stimuli/Blank.png,1,0.25,1.0,0,98,98,98,,,,,,,,,,,,,224.76400719999947,0.014007199999468867,1,256.3144589000003,256.3144589000003,256.3144589000003,256.3144589000003,256.3144589000003,256.3144589000003,256.5479895999961,257.2986754999947,256.3144589000003,256.3144589000003,0.7416293999995105,007,P022,2025_May_13_1755,ConditionRich,2021.2.3,59.9241599829138,
228.0,228.75,30,0.75,Stimuli/P016/things_ottoman_08s.jpg,0,0.0,0.0,0,99,99,99,,,,,,,,,,,,,228.00080549999984,0.0008054999998421408,None,259.5506540999995,259.5506540999995,259.5506540999995,259.5506540999995,259.5506540999995,259.5506540999995,259.5506540999995,259.5506540999995,259.5506540999995,259.5506540999995,,007,P022,2025_May_13_1755,ConditionRich,2021.2.3,59.9241599829138,
228.75,232.0,41,0.0,Stimuli/Blank.png,0,0.0,0.0,0,100,100,100,,,,,,,,,,,,,228.7514977999963,0.0014977999962866306,None,260.3013221000001,260.3013221000001,260.3013221000001,260.3013221000001,260.3013221000001,260.3013221000001,260.3013221000001,260.3013221000001,260.3013221000001,260.3013221000001,,007,P022,2025_May_13_1755,ConditionRich,2021.2.3,59.9241599829138,
232.0,232.75,16,0.75,Stimuli/P016/sun_bwhuwxazfqwuqhik.jpg,0,0.0,0.0,0,101,101,101,,,,,,,,,,,,,232.00356869999814,0.0035686999981408007,None,263.5541943999997,263.5541943999997,263.5541943999997,263.5541943999997,263.5541943999997,263.5541943999997,263.5541943999997,263.5541943999997,263.5541943999997,263.5541943999997,,007,P022,2025_May_13_1755,ConditionRich,2021.2.3,59.9241599829138,
232.75,236.0,41,0.0,Stimuli/Blank.png,1,1.25,2.0,0,102,102,102,,,,,,,,,,,,,232.75502579999738,0.005025799997383729,1,264.30486499999824,264.30486499999824,264.30486499999824,264.30486499999824,264.30486499999824,264.30486499999824,265.53928469999664,266.289932599997,264.30486499999824,264.30486499999824,1.6719962999995914,007,P022,2025_May_13_1755,ConditionRich,2021.2.3,59.9241599829138,
236.0,236.75,29,0.75,Stimuli/P016/things_mouse1_08s.jpg,0,0.0,0.0,0,103,103,103,,,,,,,,,,,,,236.00859019999916,0.008590199999161996,None,267.5744093999965,267.5744093999965,267.5744093999965,267.5744093999965,267.5744093999965,267.5744093999965,267.5744093999965,267.5744093999965,267.5744093999965,267.5744093999965,,007,P022,2025_May_13_1755,ConditionRich,2021.2.3,59.9241599829138,
236.75,240.0,41,0.0,Stimuli/Blank.png,0,0.0,0.0,0,104,104,104,,,,,,,,,,,,,236.7745070999954,0.02450709999538958,None,268.3250770999948,268.3250770999948,268.3250770999948,268.3250770999948,268.3250770999948,268.3250770999948,268.3250770999948,268.3250770999948,268.3250770999948,268.3250770999948,,007,P022,2025_May_13_1755,ConditionRich,2021.2.3,59.9241599829138,
240.0,240.75,25,0.75,Stimuli/P016/things_deer_08s.jpg,0,0.0,0.0,0,105,105,105,,,,,,,,,,,,,240.0115259000013,0.011525900001288392,None,271.57794089999516,271.57794089999516,271.57794089999516,271.57794089999516,271.57794089999516,271.57794089999516,271.57794089999516,271.57794089999516,271.57794089999516,271.57794089999516,,007,P022,2025_May_13_1755,ConditionRich,2021.2.3,59.9241599829138,
240.75,244.0,41,0.0,Stimuli/Blank.png,0,0.0,0.0,0,106,106,106,,,,,,,,,,,,,240.7787859999953,0.028785999995307066,None,272.32861769999727,272.32861769999727,272.32861769999727,272.32861769999727,272.32861769999727,272.32861769999727,272.32861769999727,272.32861769999727,272.32861769999727,272.32861769999727,,007,P022,2025_May_13_1755,ConditionRich,2021.2.3,59.9241599829138,
244.0,244.75,2,0.75,Stimuli/P016/sun_agzfkftryitnqpxc.jpg,0,0.0,0.0,0,107,107,107,,,,,,,,,,,,,244.01579599999968,0.015795999999681953,None,275.5815180999998,275.5815180999998,275.5815180999998,275.5815180999998,275.5815180999998,275.5815180999998,275.5815180999998,275.5815180999998,275.5815180999998,275.5815180999998,,007,P022,2025_May_13_1755,ConditionRich,2021.2.3,59.9241599829138,
244.75,248.0,41,0.0,Stimuli/Blank.png,0,0.0,0.0,0,108,108,108,,,,,,,,,,,,,244.764900999995,0.014900999995006714,None,276.3154854999957,276.3154854999957,276.3154854999957,276.3154854999957,276.3154854999957,276.3154854999957,276.3154854999957,276.3154854999957,276.3154854999957,276.3154854999957,,007,P022,2025_May_13_1755,ConditionRich,2021.2.3,59.9241599829138,
248.0,248.75,5,0.75,Stimuli/P016/sun_ajgmxbrxdpmsaext.jpg,0,0.0,0.0,0,109,109,109,,,,,,,,,,,,,248.00144829999772,0.0014482999977190048,None,279.5683609999978,279.5683609999978,279.5683609999978,279.5683609999978,279.5683609999978,279.5683609999978,279.5683609999978,279.5683609999978,279.5683609999978,279.5683609999978,,007,P022,2025_May_13_1755,ConditionRich,2021.2.3,59.9241599829138,
248.75,252.0,41,0.0,Stimuli/Blank.png,0,0.0,0.0,0,110,110,110,,,,,,,,,,,,,248.76872580000054,0.018725800000538584,None,280.3190093000012,280.3190093000012,280.3190093000012,280.3190093000012,280.3190093000012,280.3190093000012,280.3190093000012,280.3190093000012,280.3190093000012,280.3190093000012,,007,P022,2025_May_13_1755,ConditionRich,2021.2.3,59.9241599829138,
252.0,252.75,32,0.75,Stimuli/P016/things_pheasant_08s.jpg,0,0.0,0.0,0,111,111,111,,,,,,,,,,,,,252.00536279999505,0.0053627999950549565,None,283.5552026000005,283.5552026000005,283.5552026000005,283.5552026000005,283.5552026000005,283.5552026000005,283.5552026000005,283.5552026000005,283.5552026000005,283.5552026000005,,007,P022,2025_May_13_1755,ConditionRich,2021.2.3,59.9241599829138,
252.75,256.0,41,0.0,Stimuli/Blank.png,0,0.0,0.0,0,112,112,112,,,,,,,,,,,,,252.7554491999981,0.005449199998110998,None,284.3058630000014,284.3058630000014,284.3058630000014,284.3058630000014,284.3058630000014,284.3058630000014,284.3058630000014,284.3058630000014,284.3058630000014,284.3058630000014,,007,P022,2025_May_13_1755,ConditionRich,2021.2.3,59.9241599829138,
256.0,256.75,33,0.75,Stimuli/P016/things_raccoon_08n.jpg,0,0.0,0.0,0,113,113,113,,,,,,,,,,,,,256.0082973999961,0.008297399996081367,None,287.5587394999966,287.5587394999966,287.5587394999966,287.5587394999966,287.5587394999966,287.5587394999966,287.5587394999966,287.5587394999966,287.5587394999966,287.5587394999966,,007,P022,2025_May_13_1755,ConditionRich,2021.2.3,59.9241599829138,
256.75,260.0,41,0.0,Stimuli/Blank.png,0,0.0,0.0,0,114,114,114,,,,,,,,,,,,,256.75898400000005,0.008984000000054948,None,288.30940030000056,288.30940030000056,288.30940030000056,288.30940030000056,288.30940030000056,288.30940030000056,288.30940030000056,288.30940030000056,288.30940030000056,288.30940030000056,,007,P022,2025_May_13_1755,ConditionRich,2021.2.3,59.9241599829138,
260.0,260.75,28,0.75,Stimuli/P016/things_latte_08s.jpg,0,0.0,0.0,0,115,115,115,,,,,,,,,,,,,260.0142751999956,0.014275199995609,None,291.57896939999773,291.57896939999773,291.57896939999773,291.57896939999773,291.57896939999773,291.57896939999773,291.57896939999773,291.57896939999773,291.57896939999773,291.57896939999773,,007,P022,2025_May_13_1755,ConditionRich,2021.2.3,59.9241599829138,
260.75,264.0,41,0.0,Stimuli/Blank.png,0,0.0,0.0,0,116,116,116,,,,,,,,,,,,,260.77992470000027,0.029924700000265148,None,292.3296298999994,292.3296298999994,292.3296298999994,292.3296298999994,292.3296298999994,292.3296298999994,292.3296298999994,292.3296298999994,292.3296298999994,292.3296298999994,,007,P022,2025_May_13_1755,ConditionRich,2021.2.3,59.9241599829138,
264.0,264.75,14,0.75,Stimuli/P016/sun_bpvmkbyglkraoxhh.jpg,0,0.0,0.0,0,117,117,117,,,,,,,,,,,,,263.99932969999645,-0.0006703000035486184,None,295.54914070000086,295.54914070000086,295.54914070000086,295.54914070000086,295.54914070000086,295.54914070000086,295.54914070000086,295.54914070000086,295.54914070000086,295.54914070000086,,007,P022,2025_May_13_1755,ConditionRich,2021.2.3,59.9241599829138,
264.75,268.0,41,0.0,Stimuli/Blank.png,1,1.25,2.0,0,118,118,118,,,,,,,,,,,,,264.75130839999474,0.001308399994741194,1,296.2998221999951,296.2998221999951,296.2998221999951,296.2998221999951,296.2998221999951,296.2998221999951,297.5342276999945,298.28493660000095,296.2998221999951,296.2998221999951,1.6319579999981215,007,P022,2025_May_13_1755,ConditionRich,2021.2.3,59.9241599829138,
268.0,268.75,39,0.75,Stimuli/P016/things_window_08s.jpg,0,0.0,0.0,0,119,119,119,,,,,,,,,,,,,268.0031711999982,0.0031711999981780536,None,299.55267629999435,299.55267629999435,299.55267629999435,299.55267629999435,299.55267629999435,299.55267629999435,299.55267629999435,299.55267629999435,299.55267629999435,299.55267629999435,,007,P022,2025_May_13_1755,ConditionRich,2021.2.3,59.9241599829138,
268.75,272.0,41,0.0,Stimuli/Blank.png,0,0.0,0.0,0,120,120,120,,,,,,,,,,,,,268.7547856999954,0.004785699995409232,None,300.3200308000014,300.3200308000014,300.3200308000014,300.3200308000014,300.3200308000014,300.3200308000014,300.3200308000014,300.3200308000014,300.3200308000014,300.3200308000014,,007,P022,2025_May_13_1755,ConditionRich,2021.2.3,59.9241599829138,
272.0,272.75,38,0.75,Stimuli/P016/things_trumpet_08s.jpg,0,0.0,0.0,0,121,121,121,,,,,,,,,,,,,272.023094199998,0.02309419999801321,None,303.57298509999964,303.57298509999964,303.57298509999964,303.57298509999964,303.57298509999964,303.57298509999964,303.57298509999964,303.57298509999964,303.57298509999964,303.57298509999964,,007,P022,2025_May_13_1755,ConditionRich,2021.2.3,59.9241599829138,
272.75,276.0,41,0.0,Stimuli/Blank.png,0,0.0,0.0,0,122,122,122,,,,,,,,,,,,,272.75684579999506,0.006845799995062407,None,304.3069542000012,304.3069542000012,304.3069542000012,304.3069542000012,304.3069542000012,304.3069542000012,304.3069542000012,304.3069542000012,304.3069542000012,304.3069542000012,,007,P022,2025_May_13_1755,ConditionRich,2021.2.3,59.9241599829138,
276.0,292.0,0,0.0,Stimuli/Blank.png,1,5.0,5.75,0,123,123,123,,,,,,,,,,,,,276.0100234999991,0.010023499999078922,1,307.5597532999964,307.5597532999964,307.5597532999964,307.5597532999964,307.5597532999964,307.5597532999964,312.5474948999981,313.29816420000134,307.5597532999964,307.5597532999964,5.514231299996027,007,P022,2025_May_13_1755,ConditionRich,2021.2.3,59.9241599829138,
292.0,292.75,19,0.75,Stimuli/P016/sun_bzhwvgrzvttqoexa.jpg,0,0.0,0.0,0,124,124,124,,,,,,,,,,,,,292.00684909999836,0.006849099998362362,None,323.57392609999806,323.57392609999806,323.57392609999806,323.57392609999806,323.57392609999806,323.57392609999806,323.57392609999806,323.57392609999806,323.57392609999806,323.57392609999806,,007,P022,2025_May_13_1755,ConditionRich,2021.2.3,59.9241599829138,
292.75,296.0,41,0.0,Stimuli/Blank.png,0,0.0,0.0,0,125,125,125,,,,,,,,,,,,,292.7747313,0.024731299999984913,None,324.3245781000005,324.3245781000005,324.3245781000005,324.3245781000005,324.3245781000005,324.3245781000005,324.3245781000005,324.3245781000005,324.3245781000005,324.3245781000005,,007,P022,2025_May_13_1755,ConditionRich,2021.2.3,59.9241599829138,
296.0,296.75,7,0.75,Stimuli/P016/sun_aqdfrmtvewaapuqs.jpg,0,0.0,0.0,0,126,126,126,,,,,,,,,,,,,296.01017789999605,0.010177899996051565,None,327.560762299996,327.560762299996,327.560762299996,327.560762299996,327.560762299996,327.560762299996,327.560762299996,327.560762299996,327.560762299996,327.560762299996,,007,P022,2025_May_13_1755,ConditionRich,2021.2.3,59.9241599829138,
296.75,300.0,41,0.0,Stimuli/Blank.png,0,0.0,0.0,0,127,127,127,,,,,,,,,,,,,296.7609921999974,0.010992199997417629,None,328.3114308000004,328.3114308000004,328.3114308000004,328.3114308000004,328.3114308000004,328.3114308000004,328.3114308000004,328.3114308000004,328.3114308000004,328.3114308000004,,007,P022,2025_May_13_1755,ConditionRich,2021.2.3,59.9241599829138,
300.0,300.75,17,0.75,Stimuli/P016/sun_bxhbltvqnpaciuzt.jpg,0,0.0,0.0,0,128,128,128,,,,,,,,,,,,,300.0139033000014,0.013903300001402386,None,331.5643099999943,331.5643099999943,331.5643099999943,331.5643099999943,331.5643099999943,331.5643099999943,331.5643099999943,331.5643099999943,331.5643099999943,331.5643099999943,,007,P022,2025_May_13_1755,ConditionRich,2021.2.3,59.9241599829138,
300.75,304.0,41,0.0,Stimuli/Blank.png,0,0.0,0.0,0,129,129,129,,,,,,,,,,,,,300.76500269999815,0.015002699998149183,None,332.3149731999947,332.3149731999947,332.3149731999947,332.3149731999947,332.3149731999947,332.3149731999947,332.3149731999947,332.3149731999947,332.3149731999947,332.3149731999947,,007,P022,2025_May_13_1755,ConditionRich,2021.2.3,59.9241599829138,
304.0,304.75,37,0.75,Stimuli/P016/things_swizzle_stick_08s.jpg,0,0.0,0.0,0,130,130,130,,,,,,,,,,,,,304.00150459999713,0.0015045999971334822,None,335.5678482000003,335.5678482000003,335.5678482000003,335.5678482000003,335.5678482000003,335.5678482000003,335.5678482000003,335.5678482000003,335.5678482000003,335.5678482000003,,007,P022,2025_May_13_1755,ConditionRich,2021.2.3,59.9241599829138,
304.75,308.0,41,0.0,Stimuli/Blank.png,1,0.25,1.0,0,131,131,131,,,,,,,,,,,,,304.7685888999986,0.01858889999857638,1,336.318514599996,336.318514599996,336.318514599996,336.318514599996,336.318514599996,336.318514599996,336.552059499998,337.3027399999992,336.318514599996,336.318514599996,0.7056002000026638,007,P022,2025_May_13_1755,ConditionRich,2021.2.3,59.9241599829138,
308.0,308.75,3,0.75,Stimuli/P016/sun_aiogwnavezqxkzfg.jpg,0,0.0,0.0,0,132,132,132,,,,,,,,,,,,,308.00508219999756,0.0050821999975596555,None,339.554704999995,339.554704999995,339.554704999995,339.554704999995,339.554704999995,339.554704999995,339.554704999995,339.554704999995,339.554704999995,339.554704999995,,007,P022,2025_May_13_1755,ConditionRich,2021.2.3,59.9241599829138,
308.75,312.0,41,0.0,Stimuli/Blank.png,0,0.0,0.0,0,133,133,133,,,,,,,,,,,,,308.755450699995,0.005450699994980823,None,340.3053662999955,340.3053662999955,340.3053662999955,340.3053662999955,340.3053662999955,340.3053662999955,340.3053662999955,340.3053662999955,340.3053662999955,340.3053662999955,,007,P022,2025_May_13_1755,ConditionRich,2021.2.3,59.9241599829138,
312.0,312.75,15,0.75,Stimuli/P016/sun_bvfcijehgdsndfbg.jpg,0,0.0,0.0,0,134,134,134,,,,,,,,,,,,,312.0086725000001,0.008672500000102445,None,343.57492769999953,343.57492769999953,343.57492769999953,343.57492769999953,343.57492769999953,343.57492769999953,343.57492769999953,343.57492769999953,343.57492769999953,343.57492769999953,,007,P022,2025_May_13_1755,ConditionRich,2021.2.3,59.9241599829138,
312.75,316.0,41,0.0,Stimuli/Blank.png,0,0.0,0.0,0,135,135,135,,,,,,,,,,,,,312.77556529999856,0.025565299998561386,None,344.3255815999946,344.3255815999946,344.3255815999946,344.3255815999946,344.3255815999946,344.3255815999946,344.3255815999946,344.3255815999946,344.3255815999946,344.3255815999946,,007,P022,2025_May_13_1755,ConditionRich,2021.2.3,59.9241599829138,
316.0,316.75,27,0.75,Stimuli/P016/things_girl_08s.jpg,1,0.0,0.75,0,136,136,136,,,,,,,,,,,,,316.01184099999955,0.01184099999954924,1,347.5784638999976,347.5784638999976,347.5784638999976,347.5784638999976,347.5784638999976,347.5784638999976,347.5784638999976,348.29581699999835,347.5784638999976,347.5784638999976,0.5363738000014564,007,P022,2025_May_13_1755,ConditionRich,2021.2.3,59.9241599829138,
316.75,320.0,41,0.0,Stimuli/Blank.png,0,0.0,0.0,0,137,137,137,,,,,,,,,,,,,316.7787664999996,0.028766499999619555,None,348.32912699999724,348.32912699999724,348.32912699999724,348.32912699999724,348.32912699999724,348.32912699999724,348.32912699999724,348.32912699999724,348.32912699999724,348.32912699999724,,007,P022,2025_May_13_1755,ConditionRich,2021.2.3,59.9241599829138,
320.0,320.75,26,0.75,Stimuli/P016/things_face_08s.jpg,0,0.0,0.0,0,138,138,138,,,,,,,,,,,,,320.0148715999967,0.014871599996695295,None,351.56531639999594,351.56531639999594,351.56531639999594,351.56531639999594,351.56531639999594,351.56531639999594,351.56531639999594,351.56531639999594,351.56531639999594,351.56531639999594,,007,P022,2025_May_13_1755,ConditionRich,2021.2.3,59.9241599829138,
320.75,324.0,41,0.0,Stimuli/Blank.png,0,0.0,0.0,0,139,139,139,,,,,,,,,,,,,320.7654695999954,0.015469599995412864,None,352.3159844999973,352.3159844999973,352.3159844999973,352.3159844999973,352.3159844999973,352.3159844999973,352.3159844999973,352.3159844999973,352.3159844999973,352.3159844999973,,007,P022,2025_May_13_1755,ConditionRich,2021.2.3,59.9241599829138,
324.0,324.75,24,0.75,Stimuli/P016/things_bunkbed_08s.jpg,0,0.0,0.0,0,140,140,140,,,,,,,,,,,,,324.0025985999964,0.002598599996417761,None,355.568872799995,355.568872799995,355.568872799995,355.568872799995,355.568872799995,355.568872799995,355.568872799995,355.568872799995,355.568872799995,355.568872799995,,007,P022,2025_May_13_1755,ConditionRich,2021.2.3,59.9241599829138,
324.75,328.0,41,0.0,Stimuli/Blank.png,0,0.0,0.0,0,141,141,141,,,,,,,,,,,,,324.76982249999855,0.01982249999855412,None,356.3195048999987,356.3195048999987,356.3195048999987,356.3195048999987,356.3195048999987,356.3195048999987,356.3195048999987,356.3195048999987,356.3195048999987,356.3195048999987,,007,P022,2025_May_13_1755,ConditionRich,2021.2.3,59.9241599829138,
328.0,328.75,31,0.75,Stimuli/P016/things_outlet_08s.jpg,0,0.0,0.0,0,142,142,142,,,,,,,,,,,,,328.0052633999949,0.005263399994873907,None,359.5557345999987,359.5557345999987,359.5557345999987,359.5557345999987,359.5557345999987,359.5557345999987,359.5557345999987,359.5557345999987,359.5557345999987,359.5557345999987,,007,P022,2025_May_13_1755,ConditionRich,2021.2.3,59.9241599829138,
328.75,332.0,41,0.0,Stimuli/Blank.png,1,1.25,2.0,0,143,143,143,,,,,,,,,,,,,328.75596999999834,0.005969999998342246,1,360.30637800000113,360.30637800000113,360.30637800000113,360.30637800000113,360.30637800000113,360.30637800000113,361.5408208999943,362.2915292999969,360.30637800000113,360.30637800000113,1.712480099995446,007,P022,2025_May_13_1755,ConditionRich,2021.2.3,59.9241599829138,
332.0,332.75,8,0.75,Stimuli/P016/sun_arldxotvfucvuudk.jpg,0,0.0,0.0,0,144,144,144,,,,,,,,,,,,,332.0094916999951,0.009491699995123781,None,363.55925269999716,363.55925269999716,363.55925269999716,363.55925269999716,363.55925269999716,363.55925269999716,363.55925269999716,363.55925269999716,363.55925269999716,363.55925269999716,,007,P022,2025_May_13_1755,ConditionRich,2021.2.3,59.9241599829138,
332.75,336.0,41,0.0,Stimuli/Blank.png,0,0.0,0.0,0,145,145,145,,,,,,,,,,,,,332.7600681999975,0.010068199997476768,None,364.30991979999817,364.30991979999817,364.30991979999817,364.30991979999817,364.30991979999817,364.30991979999817,364.30991979999817,364.30991979999817,364.30991979999817,364.30991979999817,,007,P022,2025_May_13_1755,ConditionRich,2021.2.3,59.9241599829138,
336.0,336.75,4,0.75,Stimuli/P016/sun_aiwuqxdqzftsfyeg.jpg,0,0.0,0.0,0,146,146,146,,,,,,,,,,,,,336.0128093999956,0.012809399995603599,None,367.5627636999998,367.5627636999998,367.5627636999998,367.5627636999998,367.5627636999998,367.5627636999998,367.5627636999998,367.5627636999998,367.5627636999998,367.5627636999998,,007,P022,2025_May_13_1755,ConditionRich,2021.2.3,59.9241599829138,
336.75,340.0,41,0.0,Stimuli/Blank.png,0,0.0,0.0,0,147,147,147,,,,,,,,,,,,,336.76362159999553,0.013621599995531142,None,368.3134624999948,368.3134624999948,368.3134624999948,368.3134624999948,368.3134624999948,368.3134624999948,368.3134624999948,368.3134624999948,368.3134624999948,368.3134624999948,,007,P022,2025_May_13_1755,ConditionRich,2021.2.3,59.9241599829138,
340.0,340.75,10,0.75,Stimuli/P016/sun_bfojpvrlsrtfyzio.jpg,0,0.0,0.0,0,148,148,148,,,,,,,,,,,,,340.00003959999594,3.959999594371766e-05,None,371.5496585000001,371.5496585000001,371.5496585000001,371.5496585000001,371.5496585000001,371.5496585000001,371.5496585000001,371.5496585000001,371.5496585000001,371.5496585000001,,007,P022,2025_May_13_1755,ConditionRich,2021.2.3,59.9241599829138,
340.75,344.0,41,0.0,Stimuli/Blank.png,0,0.0,0.0,0,149,149,149,,,,,,,,,,,,,340.75056549999863,0.0005654999986290932,None,372.30031020000024,372.30031020000024,372.30031020000024,372.30031020000024,372.30031020000024,372.30031020000024,372.30031020000024,372.30031020000024,372.30031020000024,372.30031020000024,,007,P022,2025_May_13_1755,ConditionRich,2021.2.3,59.9241599829138,
344.0,344.75,12,0.75,Stimuli/P016/sun_boffixsnbbloarty.jpg,0,0.0,0.0,0,150,150,150,,,,,,,,,,,,,344.004706599997,0.004706599997007288,None,375.56985949999944,375.56985949999944,375.56985949999944,375.56985949999944,375.56985949999944,375.56985949999944,375.56985949999944,375.56985949999944,375.56985949999944,375.56985949999944,,007,P022,2025_May_13_1755,ConditionRich,2021.2.3,59.9241599829138,
344.75,348.0,41,0.0,Stimuli/Blank.png,0,0.0,0.0,0,151,151,151,,,,,,,,,,,,,344.77102439999726,0.021024399997259025,None,376.3205311999991,376.3205311999991,376.3205311999991,376.3205311999991,376.3205311999991,376.3205311999991,376.3205311999991,376.3205311999991,376.3205311999991,376.3205311999991,,007,P022,2025_May_13_1755,ConditionRich,2021.2.3,59.9241599829138,
348.0,348.75,23,0.75,Stimuli/P016/things_boy_08s.jpg,0,0.0,0.0,0,152,152,152,,,,,,,,,,,,,348.00684799999726,0.006847999997262377,None,379.5734239000012,379.5734239000012,379.5734239000012,379.5734239000012,379.5734239000012,379.5734239000012,379.5734239000012,379.5734239000012,379.5734239000012,379.5734239000012,,007,P022,2025_May_13_1755,ConditionRich,2021.2.3,59.9241599829138,
348.75,352.0,41,0.0,Stimuli/Blank.png,0,0.0,0.0,0,153,153,153,,,,,,,,,,,,,348.77363830000104,0.02363830000103917,None,380.3240666999991,380.3240666999991,380.3240666999991,380.3240666999991,380.3240666999991,380.3240666999991,380.3240666999991,380.3240666999991,380.3240666999991,380.3240666999991,,007,P022,2025_May_13_1755,ConditionRich,2021.2.3,59.9241599829138,
352.0,352.75,20,0.75,Stimuli/P016/sun_bzmxulijbnmshodq.jpg,0,0.0,0.0,0,154,154,154,,,,,,,,,,,,,352.00982769999973,0.009827699999732431,None,383.5602742999981,383.5602742999981,383.5602742999981,383.5602742999981,383.5602742999981,383.5602742999981,383.5602742999981,383.5602742999981,383.5602742999981,383.5602742999981,,007,P022,2025_May_13_1755,ConditionRich,2021.2.3,59.9241599829138,
352.75,356.0,41,0.0,Stimuli/Blank.png,0,0.0,0.0,0,155,155,155,,,,,,,,,,,,,352.7611753999954,0.011175399995408952,None,384.3109321000011,384.3109321000011,384.3109321000011,384.3109321000011,384.3109321000011,384.3109321000011,384.3109321000011,384.3109321000011,384.3109321000011,384.3109321000011,,007,P022,2025_May_13_1755,ConditionRich,2021.2.3,59.9241599829138,
356.0,356.75,6,0.75,Stimuli/P016/sun_akecfasimgpbqcnt.jpg,0,0.0,0.0,0,156,156,156,,,,,,,,,,,,,356.01409549999516,0.014095499995164573,None,387.56380479999643,387.56380479999643,387.56380479999643,387.56380479999643,387.56380479999643,387.56380479999643,387.56380479999643,387.56380479999643,387.56380479999643,387.56380479999643,,007,P022,2025_May_13_1755,ConditionRich,2021.2.3,59.9241599829138,
356.75,360.0,41,0.0,Stimuli/Blank.png,0,0.0,0.0,0,157,157,157,,,,,,,,,,,,,356.76563370000076,0.015633700000762474,None,388.3144839000015,388.3144839000015,388.3144839000015,388.3144839000015,388.3144839000015,388.3144839000015,388.3144839000015,388.3144839000015,388.3144839000015,388.3144839000015,,007,P022,2025_May_13_1755,ConditionRich,2021.2.3,59.9241599829138,
360.0,360.75,22,0.75,Stimuli/P016/things_baby_08s.jpg,0,0.0,0.0,0,158,158,158,,,,,,,,,,,,,360.00086129999545,0.0008612999954493716,None,391.5506569999998,391.5506569999998,391.5506569999998,391.5506569999998,391.5506569999998,391.5506569999998,391.5506569999998,391.5506569999998,391.5506569999998,391.5506569999998,,007,P022,2025_May_13_1755,ConditionRich,2021.2.3,59.9241599829138,
360.75,364.0,41,0.0,Stimuli/Blank.png,0,0.0,0.0,0,159,159,159,,,,,,,,,,,,,360.7507817000005,0.000781700000516139,None,392.3013315999997,392.3013315999997,392.3013315999997,392.3013315999997,392.3013315999997,392.3013315999997,392.3013315999997,392.3013315999997,392.3013315999997,392.3013315999997,,007,P022,2025_May_13_1755,ConditionRich,2021.2.3,59.9241599829138,
364.0,364.75,36,0.75,Stimuli/P016/things_streetlight_08s.jpg,0,0.0,0.0,0,160,160,160,,,,,,,,,,,,,364.00523769999563,0.005237699995632283,None,395.5709104999987,395.5709104999987,395.5709104999987,395.5709104999987,395.5709104999987,395.5709104999987,395.5709104999987,395.5709104999987,395.5709104999987,395.5709104999987,,007,P022,2025_May_13_1755,ConditionRich,2021.2.3,59.9241599829138,
364.75,368.0,41,0.0,Stimuli/Blank.png,0,0.0,0.0,0,161,161,161,,,,,,,,,,,,,364.7720066999973,0.022006699997291435,None,396.3215398999964,396.3215398999964,396.3215398999964,396.3215398999964,396.3215398999964,396.3215398999964,396.3215398999964,396.3215398999964,396.3215398999964,396.3215398999964,,007,P022,2025_May_13_1755,ConditionRich,2021.2.3,59.9241599829138,
368.0,368.75,34,0.75,Stimuli/P016/things_shower_cap_08s.jpg,0,0.0,0.0,0,162,162,162,,,,,,,,,,,,,368.009452899998,0.0094528999979957,None,399.57442699999956,399.57442699999956,399.57442699999956,399.57442699999956,399.57442699999956,399.57442699999956,399.57442699999956,399.57442699999956,399.57442699999956,399.57442699999956,,007,P022,2025_May_13_1755,ConditionRich,2021.2.3,59.9241599829138,
368.75,372.0,41,0.0,Stimuli/Blank.png,1,0.25,1.0,0,163,163,163,,,,,,,,,,,,,368.77507109999715,0.02507109999714885,1,400.3250816,400.3250816,400.3250816,400.3250816,400.3250816,400.3250816,400.5586201999977,401.3093934999997,400.3250816,400.3250816,0.7857880000010482,007,P022,2025_May_13_1755,ConditionRich,2021.2.3,59.9241599829138,
372.0,388.0,0,0.0,Stimuli/Blank.png,1,5.0,5.75,0,164,164,164,,,,,,,,,,,,,372.01072069999645,0.010720699996454641,1,403.561271999999,403.561271999999,403.561271999999,403.561271999999,403.561271999999,403.561271999999,408.54901719999907,409.2996825000009,403.561271999999,403.561271999999,5.587565800000448,007,P022,2025_May_13_1755,ConditionRich,2021.2.3,59.9241599829138,
